File: data_backup/16.6mm-091419/byto000sA1r1-16mm-091519.csv
#EXPORTTYPE:           ,DATA ALL
#FILE:                 ,bytownA1r1.ngb-sle
#FORMAT:               ,NETZSCH5
#FTYPE:                ,ANSI
#IDENTITY:             ,bytownite#3
#DECIMAL:              ,POINT
#SEPARATOR:            ,COMMA
#MTYPE:                ,DIL
#INSTRUMENT:           ,NETZSCH DIL 402C
#PROJECT:              ,feldspar
#DATE/TIME:            ,9/15/2019 9:30:55 AM (UTC-5)
#CORR. FILE:           ,
#TEMPCAL:              ,TCALZERO.TMX
#LABORATORY:           ,Mineral Physics
#OPERATOR:             ,PAG
#REMARK:               ,bare, norm start, for bytown and rocks , long stnd, thin, should be 100* hope tc holds up
#SAMPLE:               ,bytownite-A
#SAMPLE LENGTH /mm:    ,16.048
#MATERIAL:             ,sapphire stnd
#MEASMODE:             ,Standard Expansion
#PURGE GAS 1:          ,ARGON
#FLOW RATE 1 /(ml/min):,75
#M.RANGE /µm:          ,500
#CORR. CODE:           ,010
#RANGE:                ,20.0°C/3.0(K/min)/1200.0°C
#SEGMENT:              ,S1/1
#SEG. 1:               ,20.0°C/3.0(K/min)/1200.0°C

##Temp./°C,Time/min,dL/Lo
 20.09500,  0.00000, 4.9400e-006
 20.11600,  0.17333, 5.9156e-006
 20.11900,  0.34667, 6.6692e-006
 20.11600,  0.52000, 7.1073e-006
 20.11400,  0.69333, 7.4280e-006
 20.12400,  0.86667, 7.4682e-006
 20.12200,  1.04000, 7.3760e-006
 20.12100,  1.21333, 7.2131e-006
 20.11900,  1.38667, 6.7704e-006
 20.11600,  1.56000, 6.6322e-006
 20.11700,  1.73333, 6.5770e-006
 20.12600,  1.90667, 6.2674e-006
 20.12100,  2.08000, 5.7254e-006
 20.10900,  2.25333, 5.2580e-006
 20.12200,  2.42667, 5.1327e-006
 20.12800,  2.60000, 4.7082e-006
 20.16000,  2.77333, 4.3836e-006
 20.20700,  2.94667, 3.3249e-006
 20.28700,  3.12000, 2.5874e-006
 20.39400,  3.29333, 1.5130e-006
 20.54800,  3.46667, 1.5890e-007
 20.74400,  3.64000,-1.3314e-006
 20.99300,  3.81333,-3.0584e-006
 21.29200,  3.98667,-5.1914e-006
 21.63600,  4.16000,-6.9247e-006
 22.03800,  4.33333,-8.8273e-006
 22.51200,  4.50667,-1.0300e-005
 23.01500,  4.68000,-1.2040e-005
 23.57800,  4.85333,-1.3085e-005
 24.18300,  5.02667,-1.4186e-005
 24.83200,  5.20000,-1.4714e-005
 25.53100,  5.37333,-1.5045e-005
 26.25900,  5.54667,-1.4497e-005
 27.00500,  5.72000,-1.3568e-005
 27.79400,  5.89333,-1.1891e-005
 28.58400,  6.06667,-1.0284e-005
 29.40400,  6.24000,-7.6944e-006
 30.23400,  6.41333,-4.6725e-006
 31.07300,  6.58667,-1.3108e-006
 31.92400,  6.76000, 2.7785e-006
 32.77000,  6.93333, 7.3096e-006
 33.63800,  7.10667, 1.2126e-005
 34.50000,  7.28000, 1.7322e-005
 35.34800,  7.45333, 2.2661e-005
 36.20100,  7.62667, 2.8413e-005
 37.05100,  7.80000, 3.4448e-005
 37.90500,  7.97333, 4.0756e-005
 38.76400,  8.14667, 4.7172e-005
 39.61100,  8.32000, 5.3846e-005
 40.46500,  8.49333, 6.0440e-005
 41.31500,  8.66667, 6.7092e-005
 42.18000,  8.84000, 7.4158e-005
 43.05200,  9.01333, 8.1377e-005
 43.92800,  9.18667, 8.8977e-005
 44.79600,  9.36000, 9.6193e-005
 45.68000,  9.53333, 1.0395e-004
 46.56900,  9.70667, 1.1152e-004
 47.46800,  9.88000, 1.1944e-004
 48.36400, 10.05333, 1.2741e-004
 49.26700, 10.22667, 1.3543e-004
 50.17400, 10.40000, 1.4369e-004
 51.08300, 10.57333, 1.5178e-004
 52.00400, 10.74667, 1.6041e-004
 52.91500, 10.92000, 1.6888e-004
 53.84500, 11.09333, 1.7773e-004
 54.77400, 11.26667, 1.8656e-004
 55.71300, 11.44000, 1.9584e-004
 56.63500, 11.61333, 2.0464e-004
 57.57700, 11.78667, 2.1427e-004
 58.50500, 11.96000, 2.2406e-004
 59.44200, 12.13333, 2.3363e-004
 60.37800, 12.30667, 2.4347e-004
 61.32300, 12.48000, 2.5303e-004
 62.24700, 12.65333, 2.6333e-004
 63.19000, 12.82667, 2.7367e-004
 64.11700, 13.00000, 2.8348e-004
 65.05200, 13.17333, 2.9396e-004
 65.98500, 13.34667, 3.0437e-004
 66.92000, 13.52000, 3.1506e-004
 67.84100, 13.69333, 3.2599e-004
 68.78000, 13.86667, 3.3658e-004
 69.70000, 14.04000, 3.4712e-004
 70.63600, 14.21333, 3.5803e-004
 71.55600, 14.38667, 3.6893e-004
 72.49100, 14.56000, 3.7976e-004
 73.41000, 14.73333, 3.9066e-004
 74.33200, 14.90667, 4.0160e-004
 75.23800, 15.08000, 4.1247e-004
 76.16600, 15.25333, 4.2384e-004
 77.07900, 15.42667, 4.3462e-004
 77.98800, 15.60000, 4.4580e-004
 78.91000, 15.77333, 4.5684e-004
 79.81900, 15.94667, 4.6803e-004
 80.73100, 16.12000, 4.7931e-004
 81.65000, 16.29333, 4.9043e-004
 82.55900, 16.46667, 5.0137e-004
 83.46500, 16.64000, 5.1283e-004
 84.37300, 16.81333, 5.2445e-004
 85.27400, 16.98667, 5.3549e-004
 86.18200, 17.16000, 5.4687e-004
 87.07400, 17.33333, 5.5800e-004
 87.97800, 17.50667, 5.6943e-004
 88.87700, 17.68000, 5.8093e-004
 89.76800, 17.85333, 5.9231e-004
 90.66600, 18.02667, 6.0378e-004
 91.55000, 18.20000, 6.1514e-004
 92.44700, 18.37333, 6.2698e-004
 93.33400, 18.54667, 6.3834e-004
 94.21400, 18.72000, 6.4967e-004
 95.10800, 18.89333, 6.6150e-004
 95.99300, 19.06667, 6.7281e-004
 96.86800, 19.24000, 6.8408e-004
 97.74200, 19.41333, 6.9577e-004
 98.62800, 19.58667, 7.0716e-004
 99.50900, 19.76000, 7.1895e-004
100.381, 19.93333, 7.3036e-004
101.242, 20.10667, 7.4196e-004
102.117, 20.28000, 7.5316e-004
102.993, 20.45333, 7.6470e-004
103.857, 20.62667, 7.7644e-004
104.73, 20.80000, 7.8771e-004
105.599, 20.97333, 7.9928e-004
106.449, 21.14667, 8.1073e-004
107.31, 21.32000, 8.2205e-004
108.166, 21.49333, 8.3332e-004
109.03, 21.66667, 8.4502e-004
109.895, 21.84000, 8.5654e-004
110.741, 22.01333, 8.6768e-004
111.606, 22.18667, 8.7929e-004
112.463, 22.36000, 8.9056e-004
113.314, 22.53333, 9.0200e-004
114.176, 22.70667, 9.1337e-004
115.016, 22.88000, 9.2488e-004
115.876, 23.05333, 9.3635e-004
116.722, 23.22667, 9.4747e-004
117.568, 23.40000, 9.5885e-004
118.421, 23.57333, 9.7033e-004
119.266, 23.74667, 9.8160e-004
120.115, 23.92000, 9.9288e-004
120.966, 24.09333, 1.0043e-003
121.813, 24.26667, 1.0155e-003
122.649, 24.44000, 1.0266e-003
123.489, 24.61333, 1.0379e-003
124.341, 24.78667, 1.0495e-003
125.176, 24.96000, 1.0609e-003
126.02, 25.13333, 1.0720e-003
126.859, 25.30667, 1.0834e-003
127.693, 25.48000, 1.0942e-003
128.532, 25.65333, 1.1057e-003
129.364, 25.82667, 1.1169e-003
130.201, 26.00000, 1.1283e-003
131.027, 26.17333, 1.1394e-003
131.865, 26.34667, 1.1506e-003
132.705, 26.52000, 1.1620e-003
133.53, 26.69333, 1.1733e-003
134.366, 26.86667, 1.1844e-003
135.186, 27.04000, 1.1956e-003
136.016, 27.21333, 1.2065e-003
136.835, 27.38667, 1.2178e-003
137.665, 27.56000, 1.2289e-003
138.491, 27.73333, 1.2400e-003
139.319, 27.90667, 1.2511e-003
140.13, 28.08000, 1.2621e-003
140.955, 28.25333, 1.2734e-003
141.776, 28.42667, 1.2844e-003
142.599, 28.60000, 1.2957e-003
143.418, 28.77333, 1.3069e-003
144.231, 28.94667, 1.3180e-003
145.059, 29.12000, 1.3290e-003
145.878, 29.29333, 1.3400e-003
146.698, 29.46667, 1.3513e-003
147.512, 29.64000, 1.3625e-003
148.322, 29.81333, 1.3734e-003
149.14, 29.98667, 1.3843e-003
149.963, 30.16000, 1.3959e-003
150.767, 30.33333, 1.4066e-003
151.58, 30.50667, 1.4179e-003
152.384, 30.68000, 1.4285e-003
153.19, 30.85333, 1.4395e-003
153.992, 31.02667, 1.4506e-003
154.8, 31.20000, 1.4616e-003
155.6, 31.37333, 1.4727e-003
156.41, 31.54667, 1.4835e-003
157.225, 31.72000, 1.4948e-003
158.032, 31.89333, 1.5057e-003
158.826, 32.06667, 1.5163e-003
159.629, 32.24000, 1.5272e-003
160.427, 32.41333, 1.5380e-003
161.229, 32.58667, 1.5489e-003
162.023, 32.76000, 1.5597e-003
162.828, 32.93333, 1.5707e-003
163.629, 33.10667, 1.5818e-003
164.423, 33.28000, 1.5923e-003
165.226, 33.45333, 1.6033e-003
166.012, 33.62667, 1.6141e-003
166.81, 33.80000, 1.6249e-003
167.602, 33.97333, 1.6358e-003
168.391, 34.14667, 1.6464e-003
169.191, 34.32000, 1.6575e-003
169.986, 34.49333, 1.6684e-003
170.781, 34.66667, 1.6794e-003
171.584, 34.84000, 1.6905e-003
172.379, 35.01333, 1.7014e-003
173.166, 35.18667, 1.7119e-003
173.955, 35.36000, 1.7225e-003
174.741, 35.53333, 1.7337e-003
175.531, 35.70667, 1.7442e-003
176.316, 35.88000, 1.7551e-003
177.097, 36.05333, 1.7658e-003
177.886, 36.22667, 1.7766e-003
178.659, 36.40000, 1.7873e-003
179.446, 36.57333, 1.7979e-003
180.224, 36.74667, 1.8089e-003
181.002, 36.92000, 1.8196e-003
181.78, 37.09333, 1.8301e-003
182.55, 37.26667, 1.8408e-003
183.328, 37.44000, 1.8515e-003
184.102, 37.61333, 1.8620e-003
184.881, 37.78667, 1.8730e-003
185.662, 37.96000, 1.8835e-003
186.433, 38.13333, 1.8945e-003
187.209, 38.30667, 1.9048e-003
187.985, 38.48000, 1.9155e-003
188.764, 38.65333, 1.9262e-003
189.526, 38.82667, 1.9369e-003
190.305, 39.00000, 1.9473e-003
191.074, 39.17333, 1.9580e-003
191.852, 39.34667, 1.9686e-003
192.625, 39.52000, 1.9793e-003
193.395, 39.69333, 1.9900e-003
194.174, 39.86667, 2.0004e-003
194.939, 40.04000, 2.0111e-003
195.707, 40.21333, 2.0213e-003
196.477, 40.38667, 2.0323e-003
197.241, 40.56000, 2.0425e-003
198.002, 40.73333, 2.0532e-003
198.765, 40.90667, 2.0636e-003
199.537, 41.08000, 2.0744e-003
200.294, 41.25333, 2.0848e-003
201.057, 41.42667, 2.0954e-003
201.816, 41.60000, 2.1058e-003
202.584, 41.77333, 2.1163e-003
203.334, 41.94667, 2.1265e-003
204.092, 42.12000, 2.1369e-003
204.852, 42.29333, 2.1477e-003
205.605, 42.46667, 2.1580e-003
206.36, 42.64000, 2.1679e-003
207.112, 42.81333, 2.1785e-003
207.871, 42.98667, 2.1888e-003
208.622, 43.16000, 2.1993e-003
209.378, 43.33333, 2.2098e-003
210.125, 43.50667, 2.2200e-003
210.883, 43.68000, 2.2302e-003
211.639, 43.85333, 2.2406e-003
212.389, 44.02667, 2.2508e-003
213.132, 44.20000, 2.2612e-003
213.874, 44.37333, 2.2713e-003
214.627, 44.54667, 2.2817e-003
215.375, 44.72000, 2.2920e-003
216.127, 44.89333, 2.3024e-003
216.878, 45.06667, 2.3128e-003
217.623, 45.24000, 2.3229e-003
218.361, 45.41333, 2.3331e-003
219.099, 45.58667, 2.3435e-003
219.853, 45.76000, 2.3539e-003
220.586, 45.93333, 2.3641e-003
221.336, 46.10667, 2.3745e-003
222.081, 46.28000, 2.3846e-003
222.838, 46.45333, 2.3949e-003
223.573, 46.62667, 2.4052e-003
224.314, 46.80000, 2.4151e-003
225.036, 46.97333, 2.4249e-003
225.771, 47.14667, 2.4354e-003
226.505, 47.32000, 2.4453e-003
227.239, 47.49333, 2.4554e-003
227.978, 47.66667, 2.4658e-003
228.711, 47.84000, 2.4759e-003
229.438, 48.01333, 2.4860e-003
230.176, 48.18667, 2.4962e-003
230.908, 48.36000, 2.5064e-003
231.645, 48.53333, 2.5166e-003
232.374, 48.70667, 2.5267e-003
233.107, 48.88000, 2.5366e-003
233.834, 49.05333, 2.5467e-003
234.568, 49.22667, 2.5569e-003
235.286, 49.40000, 2.5670e-003
236.017, 49.57333, 2.5771e-003
236.743, 49.74667, 2.5867e-003
237.465, 49.92000, 2.5968e-003
238.194, 50.09333, 2.6072e-003
238.918, 50.26667, 2.6171e-003
239.647, 50.44000, 2.6272e-003
240.364, 50.61333, 2.6370e-003
241.089, 50.78667, 2.6468e-003
241.809, 50.96000, 2.6567e-003
242.526, 51.13333, 2.6670e-003
243.246, 51.30667, 2.6769e-003
243.972, 51.48000, 2.6871e-003
244.694, 51.65333, 2.6971e-003
245.411, 51.82667, 2.7073e-003
246.135, 52.00000, 2.7169e-003
246.847, 52.17333, 2.7267e-003
247.562, 52.34667, 2.7368e-003
248.273, 52.52000, 2.7465e-003
248.984, 52.69333, 2.7565e-003
249.697, 52.86667, 2.7663e-003
250.405, 53.04000, 2.7763e-003
251.122, 53.21333, 2.7862e-003
251.834, 53.38667, 2.7959e-003
252.542, 53.56000, 2.8056e-003
253.245, 53.73333, 2.8154e-003
253.954, 53.90667, 2.8251e-003
254.662, 54.08000, 2.8351e-003
255.376, 54.25333, 2.8451e-003
256.075, 54.42667, 2.8547e-003
256.777, 54.60000, 2.8643e-003
257.488, 54.77333, 2.8742e-003
258.193, 54.94667, 2.8839e-003
258.901, 55.12000, 2.8936e-003
259.605, 55.29333, 2.9034e-003
260.311, 55.46667, 2.9130e-003
261.015, 55.64000, 2.9229e-003
261.717, 55.81333, 2.9326e-003
262.428, 55.98667, 2.9427e-003
263.131, 56.16000, 2.9521e-003
263.836, 56.33333, 2.9620e-003
264.536, 56.50667, 2.9717e-003
265.233, 56.68000, 2.9810e-003
265.938, 56.85333, 2.9913e-003
266.632, 57.02667, 3.0005e-003
267.324, 57.20000, 3.0098e-003
268.017, 57.37333, 3.0201e-003
268.717, 57.54667, 3.0296e-003
269.407, 57.72000, 3.0391e-003
270.104, 57.89333, 3.0484e-003
270.796, 58.06667, 3.0583e-003
271.501, 58.24000, 3.0680e-003
272.192, 58.41333, 3.0776e-003
272.885, 58.58667, 3.0869e-003
273.584, 58.76000, 3.0967e-003
274.278, 58.93333, 3.1064e-003
274.97, 59.10667, 3.1158e-003
275.659, 59.28000, 3.1252e-003
276.346, 59.45333, 3.1346e-003
277.028, 59.62667, 3.1443e-003
277.706, 59.80000, 3.1534e-003
278.393, 59.97333, 3.1629e-003
279.085, 60.14667, 3.1728e-003
279.775, 60.32000, 3.1820e-003
280.462, 60.49333, 3.1916e-003
281.137, 60.66667, 3.2010e-003
281.819, 60.84000, 3.2104e-003
282.51, 61.01333, 3.2202e-003
283.192, 61.18667, 3.2294e-003
283.877, 61.36000, 3.2388e-003
284.558, 61.53333, 3.2483e-003
285.243, 61.70667, 3.2577e-003
285.923, 61.88000, 3.2670e-003
286.598, 62.05333, 3.2766e-003
287.279, 62.22667, 3.2858e-003
287.96, 62.40000, 3.2953e-003
288.63, 62.57333, 3.3044e-003
289.317, 62.74667, 3.3138e-003
289.986, 62.92000, 3.3231e-003
290.661, 63.09333, 3.3327e-003
291.327, 63.26667, 3.3417e-003
291.999, 63.44000, 3.3512e-003
292.68, 63.61333, 3.3603e-003
293.346, 63.78667, 3.3696e-003
294.023, 63.96000, 3.3788e-003
294.685, 64.13333, 3.3884e-003
295.359, 64.30667, 3.3976e-003
296.029, 64.48000, 3.4068e-003
296.7, 64.65333, 3.4159e-003
297.377, 64.82667, 3.4255e-003
298.045, 65.00000, 3.4347e-003
298.707, 65.17333, 3.4438e-003
299.379, 65.34667, 3.4534e-003
300.048, 65.52000, 3.4624e-003
300.711, 65.69333, 3.4716e-003
301.379, 65.86667, 3.4812e-003
302.045, 66.04000, 3.4900e-003
302.711, 66.21333, 3.4993e-003
303.378, 66.38667, 3.5087e-003
304.037, 66.56000, 3.5176e-003
304.694, 66.73333, 3.5265e-003
305.354, 66.90667, 3.5357e-003
306.015, 67.08000, 3.5448e-003
306.674, 67.25333, 3.5540e-003
307.327, 67.42667, 3.5630e-003
307.995, 67.60000, 3.5725e-003
308.652, 67.77333, 3.5814e-003
309.316, 67.94667, 3.5904e-003
309.974, 68.12000, 3.5993e-003
310.629, 68.29333, 3.6089e-003
311.283, 68.46667, 3.6179e-003
311.938, 68.64000, 3.6271e-003
312.591, 68.81333, 3.6359e-003
313.251, 68.98667, 3.6452e-003
313.908, 69.16000, 3.6544e-003
314.557, 69.33333, 3.6630e-003
315.217, 69.50667, 3.6721e-003
315.863, 69.68000, 3.6811e-003
316.515, 69.85333, 3.6903e-003
317.16, 70.02667, 3.6992e-003
317.804, 70.20000, 3.7085e-003
318.449, 70.37333, 3.7170e-003
319.111, 70.54667, 3.7261e-003
319.761, 70.72000, 3.7353e-003
320.414, 70.89333, 3.7443e-003
321.061, 71.06667, 3.7531e-003
321.703, 71.24000, 3.7618e-003
322.341, 71.41333, 3.7707e-003
322.991, 71.58667, 3.7799e-003
323.634, 71.76000, 3.7888e-003
324.276, 71.93333, 3.7976e-003
324.937, 72.10667, 3.8063e-003
325.576, 72.28000, 3.8156e-003
326.226, 72.45333, 3.8246e-003
326.864, 72.62667, 3.8333e-003
327.503, 72.80000, 3.8421e-003
328.154, 72.97333, 3.8511e-003
328.798, 73.14667, 3.8604e-003
329.436, 73.32000, 3.8690e-003
330.084, 73.49333, 3.8782e-003
330.723, 73.66667, 3.8869e-003
331.359, 73.84000, 3.8958e-003
331.993, 74.01333, 3.9042e-003
332.635, 74.18667, 3.9135e-003
333.27, 74.36000, 3.9220e-003
333.901, 74.53333, 3.9310e-003
334.541, 74.70667, 3.9397e-003
335.177, 74.88000, 3.9484e-003
335.812, 75.05333, 3.9568e-003
336.45, 75.22667, 3.9661e-003
337.087, 75.40000, 3.9742e-003
337.72, 75.57333, 3.9833e-003
338.359, 75.74667, 3.9921e-003
338.991, 75.92000, 4.0011e-003
339.627, 76.09333, 4.0098e-003
340.25, 76.26667, 4.0183e-003
340.887, 76.44000, 4.0269e-003
341.522, 76.61333, 4.0356e-003
342.159, 76.78667, 4.0446e-003
342.788, 76.96000, 4.0532e-003
343.416, 77.13333, 4.0617e-003
344.048, 77.30667, 4.0708e-003
344.68, 77.48000, 4.0793e-003
345.309, 77.65333, 4.0877e-003
345.929, 77.82667, 4.0963e-003
346.56, 78.00000, 4.1054e-003
347.187, 78.17333, 4.1137e-003
347.812, 78.34667, 4.1224e-003
348.437, 78.52000, 4.1311e-003
349.054, 78.69333, 4.1397e-003
349.673, 78.86667, 4.1483e-003
350.312, 79.04000, 4.1573e-003
350.926, 79.21333, 4.1656e-003
351.553, 79.38667, 4.1743e-003
352.176, 79.56000, 4.1830e-003
352.793, 79.73333, 4.1917e-003
353.419, 79.90667, 4.2000e-003
354.035, 80.08000, 4.2088e-003
354.649, 80.25333, 4.2171e-003
355.274, 80.42667, 4.2259e-003
355.898, 80.60000, 4.2345e-003
356.522, 80.77333, 4.2432e-003
357.146, 80.94667, 4.2516e-003
357.762, 81.12000, 4.2599e-003
358.382, 81.29333, 4.2687e-003
358.994, 81.46667, 4.2771e-003
359.601, 81.64000, 4.2852e-003
360.207, 81.81333, 4.2934e-003
360.836, 81.98667, 4.3025e-003
361.456, 82.16000, 4.3108e-003
362.07, 82.33333, 4.3194e-003
362.69, 82.50667, 4.3280e-003
363.304, 82.68000, 4.3361e-003
363.916, 82.85333, 4.3448e-003
364.53, 83.02667, 4.3535e-003
365.145, 83.20000, 4.3617e-003
365.754, 83.37333, 4.3707e-003
366.37, 83.54667, 4.3789e-003
366.98, 83.72000, 4.3874e-003
367.582, 83.89333, 4.3958e-003
368.19, 84.06667, 4.4044e-003
368.795, 84.24000, 4.4127e-003
369.4, 84.41333, 4.4210e-003
370.017, 84.58667, 4.4296e-003
370.624, 84.76000, 4.4376e-003
371.238, 84.93333, 4.4465e-003
371.844, 85.10667, 4.4550e-003
372.452, 85.28000, 4.4630e-003
373.064, 85.45333, 4.4719e-003
373.673, 85.62667, 4.4801e-003
374.284, 85.80000, 4.4886e-003
374.896, 85.97333, 4.4970e-003
375.492, 86.14667, 4.5053e-003
376.094, 86.32000, 4.5138e-003
376.707, 86.49333, 4.5221e-003
377.31, 86.66667, 4.5301e-003
377.916, 86.84000, 4.5388e-003
378.52, 87.01333, 4.5472e-003
379.124, 87.18667, 4.5554e-003
379.72, 87.36000, 4.5635e-003
380.325, 87.53333, 4.5720e-003
380.923, 87.70667, 4.5802e-003
381.528, 87.88000, 4.5887e-003
382.123, 88.05333, 4.5971e-003
382.728, 88.22667, 4.6057e-003
383.321, 88.40000, 4.6137e-003
383.922, 88.57333, 4.6223e-003
384.518, 88.74667, 4.6305e-003
385.112, 88.92000, 4.6387e-003
385.715, 89.09333, 4.6470e-003
386.302, 89.26667, 4.6553e-003
386.901, 89.44000, 4.6630e-003
387.493, 89.61333, 4.6713e-003
388.091, 89.78667, 4.6798e-003
388.68, 89.96000, 4.6882e-003
389.276, 90.13333, 4.6962e-003
389.873, 90.30667, 4.7047e-003
390.48, 90.48000, 4.7132e-003
391.063, 90.65333, 4.7212e-003
391.665, 90.82667, 4.7291e-003
392.259, 91.00000, 4.7374e-003
392.849, 91.17333, 4.7458e-003
393.44, 91.34667, 4.7543e-003
394.031, 91.52000, 4.7619e-003
394.626, 91.69333, 4.7697e-003
395.218, 91.86667, 4.7781e-003
395.81, 92.04000, 4.7863e-003
396.398, 92.21333, 4.7947e-003
396.993, 92.38667, 4.8029e-003
397.586, 92.56000, 4.8110e-003
398.181, 92.73333, 4.8197e-003
398.77, 92.90667, 4.8274e-003
399.356, 93.08000, 4.8357e-003
399.951, 93.25333, 4.8439e-003
400.534, 93.42667, 4.8519e-003
401.123, 93.60000, 4.8600e-003
401.718, 93.77333, 4.8685e-003
402.301, 93.94667, 4.8761e-003
402.884, 94.12000, 4.8844e-003
403.467, 94.29333, 4.8924e-003
404.059, 94.46667, 4.9008e-003
404.641, 94.64000, 4.9088e-003
405.231, 94.81333, 4.9172e-003
405.817, 94.98667, 4.9250e-003
406.396, 95.16000, 4.9330e-003
406.986, 95.33333, 4.9413e-003
407.566, 95.50667, 4.9491e-003
408.148, 95.68000, 4.9569e-003
408.734, 95.85333, 4.9653e-003
409.317, 96.02667, 4.9733e-003
409.899, 96.20000, 4.9814e-003
410.479, 96.37333, 4.9893e-003
411.062, 96.54667, 4.9973e-003
411.642, 96.72000, 5.0055e-003
412.222, 96.89333, 5.0134e-003
412.795, 97.06667, 5.0213e-003
413.376, 97.24000, 5.0289e-003
413.958, 97.41333, 5.0373e-003
414.54, 97.58667, 5.0454e-003
415.116, 97.76000, 5.0533e-003
415.685, 97.93333, 5.0615e-003
416.257, 98.10667, 5.0696e-003
416.842, 98.28000, 5.0777e-003
417.417, 98.45333, 5.0852e-003
417.996, 98.62667, 5.0933e-003
418.575, 98.80000, 5.1022e-003
419.147, 98.97333, 5.1097e-003
419.727, 99.14667, 5.1181e-003
420.304, 99.32000, 5.1255e-003
420.876, 99.49333, 5.1338e-003
421.447, 99.66667, 5.1420e-003
422.017, 99.84000, 5.1505e-003
422.589,100.013, 5.1586e-003
423.16,100.187, 5.1666e-003
423.733,100.36, 5.1747e-003
424.299,100.533, 5.1828e-003
424.861,100.707, 5.1913e-003
425.428,100.88, 5.1995e-003
425.989,101.053, 5.2077e-003
426.549,101.227, 5.2160e-003
427.111,101.4, 5.2235e-003
427.67,101.573, 5.2315e-003
428.226,101.747, 5.2397e-003
428.782,101.92, 5.2477e-003
429.344,102.093, 5.2550e-003
429.914,102.267, 5.2632e-003
430.471,102.44, 5.2706e-003
431.043,102.613, 5.2786e-003
431.621,102.787, 5.2862e-003
432.188,102.96, 5.2933e-003
432.766,103.133, 5.3015e-003
433.349,103.307, 5.3091e-003
433.933,103.48, 5.3168e-003
434.522,103.653, 5.3240e-003
435.108,103.827, 5.3320e-003
435.7,104, 5.3402e-003
436.292,104.173, 5.3478e-003
436.887,104.347, 5.3559e-003
437.482,104.52, 5.3632e-003
438.072,104.693, 5.3714e-003
438.669,104.867, 5.3794e-003
439.26,105.04, 5.3876e-003
439.853,105.213, 5.3955e-003
440.429,105.387, 5.4035e-003
441.029,105.56, 5.4116e-003
441.619,105.733, 5.4199e-003
442.213,105.907, 5.4280e-003
442.797,106.08, 5.4359e-003
443.383,106.253, 5.4436e-003
443.965,106.427, 5.4517e-003
444.545,106.6, 5.4599e-003
445.126,106.773, 5.4682e-003
445.702,106.947, 5.4761e-003
446.279,107.12, 5.4843e-003
446.86,107.293, 5.4919e-003
447.437,107.467, 5.5001e-003
448.013,107.64, 5.5080e-003
448.581,107.813, 5.5159e-003
449.152,107.987, 5.5235e-003
449.722,108.16, 5.5316e-003
450.303,108.333, 5.5400e-003
450.874,108.507, 5.5480e-003
451.441,108.68, 5.5552e-003
452.009,108.853, 5.5632e-003
452.582,109.027, 5.5714e-003
453.136,109.2, 5.5811e-003
453.701,109.373, 5.5884e-003
454.267,109.547, 5.5956e-003
454.827,109.72, 5.6031e-003
455.387,109.893, 5.6102e-003
455.954,110.067, 5.6182e-003
456.508,110.24, 5.6260e-003
457.069,110.413, 5.6335e-003
457.625,110.587, 5.6414e-003
458.182,110.76, 5.6493e-003
458.738,110.933, 5.6573e-003
459.297,111.107, 5.6649e-003
459.854,111.28, 5.6735e-003
460.405,111.453, 5.6806e-003
460.962,111.627, 5.6886e-003
461.512,111.8, 5.6964e-003
462.06,111.973, 5.7039e-003
462.606,112.147, 5.7110e-003
463.16,112.32, 5.7190e-003
463.707,112.493, 5.7266e-003
464.257,112.667, 5.7342e-003
464.801,112.84, 5.7421e-003
465.35,113.013, 5.7488e-003
465.901,113.187, 5.7568e-003
466.449,113.36, 5.7646e-003
466.996,113.533, 5.7723e-003
467.536,113.707, 5.7800e-003
468.084,113.88, 5.7871e-003
468.633,114.053, 5.7951e-003
469.178,114.227, 5.8028e-003
469.724,114.4, 5.8098e-003
470.273,114.573, 5.8175e-003
470.815,114.747, 5.8255e-003
471.35,114.92, 5.8325e-003
471.893,115.093, 5.8401e-003
472.438,115.267, 5.8479e-003
472.975,115.44, 5.8553e-003
473.517,115.613, 5.8630e-003
474.06,115.787, 5.8709e-003
474.605,115.96, 5.8788e-003
475.151,116.133, 5.8864e-003
475.689,116.307, 5.8938e-003
476.228,116.48, 5.9011e-003
476.769,116.653, 5.9091e-003
477.318,116.827, 5.9172e-003
477.856,117, 5.9242e-003
478.391,117.173, 5.9319e-003
478.921,117.347, 5.9400e-003
479.46,117.52, 5.9476e-003
479.991,117.693, 5.9554e-003
480.522,117.867, 5.9628e-003
481.057,118.04, 5.9709e-003
481.585,118.213, 5.9789e-003
482.11,118.387, 5.9861e-003
482.64,118.56, 5.9940e-003
483.164,118.733, 6.0021e-003
483.694,118.907, 6.0092e-003
484.221,119.08, 6.0172e-003
484.74,119.253, 6.0247e-003
485.266,119.427, 6.0320e-003
485.787,119.6, 6.0393e-003
486.309,119.773, 6.0472e-003
486.84,119.947, 6.0540e-003
487.369,120.12, 6.0618e-003
487.902,120.293, 6.0692e-003
488.437,120.467, 6.0768e-003
488.972,120.64, 6.0840e-003
489.506,120.813, 6.0907e-003
490.055,120.987, 6.0985e-003
490.597,121.16, 6.1052e-003
491.147,121.333, 6.1127e-003
491.691,121.507, 6.1201e-003
492.244,121.68, 6.1272e-003
492.789,121.853, 6.1346e-003
493.346,122.027, 6.1424e-003
493.9,122.2, 6.1494e-003
494.455,122.373, 6.1573e-003
495.012,122.547, 6.1644e-003
495.567,122.72, 6.1726e-003
496.123,122.893, 6.1796e-003
496.674,123.067, 6.1874e-003
497.223,123.24, 6.1953e-003
497.777,123.413, 6.2032e-003
498.321,123.587, 6.2107e-003
498.865,123.76, 6.2180e-003
499.415,123.933, 6.2254e-003
499.956,124.107, 6.2333e-003
500.5,124.28, 6.2406e-003
501.05,124.453, 6.2477e-003
501.592,124.627, 6.2556e-003
502.138,124.8, 6.2634e-003
502.677,124.973, 6.2709e-003
503.216,125.147, 6.2784e-003
503.76,125.32, 6.2858e-003
504.303,125.493, 6.2933e-003
504.837,125.667, 6.3003e-003
505.376,125.84, 6.3081e-003
505.914,126.013, 6.3153e-003
506.456,126.187, 6.3230e-003
506.99,126.36, 6.3305e-003
507.528,126.533, 6.3375e-003
508.059,126.707, 6.3455e-003
508.599,126.88, 6.3528e-003
509.13,127.053, 6.3606e-003
509.654,127.227, 6.3674e-003
510.185,127.4, 6.3754e-003
510.719,127.573, 6.3829e-003
511.247,127.747, 6.3897e-003
511.777,127.92, 6.3974e-003
512.309,128.093, 6.4047e-003
512.829,128.267, 6.4118e-003
513.358,128.44, 6.4196e-003
513.883,128.613, 6.4266e-003
514.41,128.787, 6.4341e-003
514.939,128.96, 6.4408e-003
515.452,129.133, 6.4484e-003
515.979,129.307, 6.4565e-003
516.505,129.48, 6.4632e-003
517.028,129.653, 6.4710e-003
517.549,129.827, 6.4776e-003
518.06,130, 6.4853e-003
518.584,130.173, 6.4924e-003
519.105,130.347, 6.4998e-003
519.627,130.52, 6.5068e-003
520.14,130.693, 6.5140e-003
520.656,130.867, 6.5216e-003
521.175,131.04, 6.5283e-003
521.69,131.213, 6.5360e-003
522.204,131.387, 6.5428e-003
522.721,131.56, 6.5497e-003
523.24,131.733, 6.5570e-003
523.755,131.907, 6.5648e-003
524.271,132.08, 6.5716e-003
524.795,132.253, 6.5790e-003
525.312,132.427, 6.5863e-003
525.829,132.6, 6.5937e-003
526.341,132.773, 6.6005e-003
526.872,132.947, 6.6082e-003
527.377,133.12, 6.6158e-003
527.893,133.293, 6.6224e-003
528.408,133.467, 6.6292e-003
528.922,133.64, 6.6371e-003
529.441,133.813, 6.6448e-003
529.954,133.987, 6.6521e-003
530.461,134.16, 6.6589e-003
530.979,134.333, 6.6665e-003
531.489,134.507, 6.6733e-003
532.007,134.68, 6.6809e-003
532.518,134.853, 6.6885e-003
533.025,135.027, 6.6954e-003
533.542,135.2, 6.7029e-003
534.051,135.373, 6.7103e-003
534.566,135.547, 6.7172e-003
535.081,135.72, 6.7248e-003
535.587,135.893, 6.7314e-003
536.099,136.067, 6.7402e-003
536.608,136.24, 6.7470e-003
537.116,136.413, 6.7537e-003
537.633,136.587, 6.7607e-003
538.149,136.76, 6.7681e-003
538.654,136.933, 6.7745e-003
539.169,137.107, 6.7823e-003
539.679,137.28, 6.7892e-003
540.19,137.453, 6.7968e-003
540.704,137.627, 6.8037e-003
541.209,137.8, 6.8113e-003
541.718,137.973, 6.8188e-003
542.218,138.147, 6.8254e-003
542.724,138.32, 6.8323e-003
543.233,138.493, 6.8400e-003
543.743,138.667, 6.8470e-003
544.248,138.84, 6.8544e-003
544.757,139.013, 6.8619e-003
545.265,139.187, 6.8685e-003
545.769,139.36, 6.8762e-003
546.273,139.533, 6.8831e-003
546.773,139.707, 6.8903e-003
547.281,139.88, 6.8980e-003
547.798,140.053, 6.9047e-003
548.295,140.227, 6.9120e-003
548.803,140.4, 6.9188e-003
549.311,140.573, 6.9263e-003
549.816,140.747, 6.9336e-003
550.329,140.92, 6.9406e-003
550.836,141.093, 6.9471e-003
551.337,141.267, 6.9547e-003
551.845,141.44, 6.9619e-003
552.355,141.613, 6.9688e-003
552.864,141.787, 6.9761e-003
553.374,141.96, 6.9835e-003
553.879,142.133, 6.9902e-003
554.387,142.307, 6.9973e-003
554.895,142.48, 7.0051e-003
555.405,142.653, 7.0120e-003
555.912,142.827, 7.0196e-003
556.412,143, 7.0258e-003
556.92,143.173, 7.0334e-003
557.425,143.347, 7.0405e-003
557.93,143.52, 7.0472e-003
558.433,143.693, 7.0546e-003
558.946,143.867, 7.0621e-003
559.446,144.04, 7.0696e-003
559.95,144.213, 7.0763e-003
560.455,144.387, 7.0829e-003
560.952,144.56, 7.0907e-003
561.453,144.733, 7.0972e-003
561.95,144.907, 7.1045e-003
562.457,145.08, 7.1115e-003
562.96,145.253, 7.1189e-003
563.459,145.427, 7.1256e-003
563.976,145.6, 7.1321e-003
564.469,145.773, 7.1395e-003
564.979,145.947, 7.1472e-003
565.485,146.12, 7.1543e-003
565.99,146.293, 7.1611e-003
566.49,146.467, 7.1686e-003
566.996,146.64, 7.1754e-003
567.492,146.813, 7.1827e-003
567.996,146.987, 7.1892e-003
568.499,147.16, 7.1969e-003
569,147.333, 7.2031e-003
569.503,147.507, 7.2115e-003
570.009,147.68, 7.2183e-003
570.51,147.853, 7.2256e-003
571.013,148.027, 7.2322e-003
571.508,148.2, 7.2397e-003
572.005,148.373, 7.2462e-003
572.504,148.547, 7.2537e-003
573.005,148.72, 7.2610e-003
573.506,148.893, 7.2682e-003
573.998,149.067, 7.2750e-003
574.504,149.24, 7.2823e-003
574.997,149.413, 7.2892e-003
575.497,149.587, 7.2963e-003
575.996,149.76, 7.3037e-003
576.486,149.933, 7.3103e-003
576.99,150.107, 7.3181e-003
577.486,150.28, 7.3246e-003
577.985,150.453, 7.3317e-003
578.486,150.627, 7.3393e-003
578.98,150.8, 7.3458e-003
579.474,150.973, 7.3530e-003
579.974,151.147, 7.3605e-003
580.47,151.32, 7.3671e-003
580.965,151.493, 7.3745e-003
581.463,151.667, 7.3818e-003
581.963,151.84, 7.3883e-003
582.461,152.013, 7.3959e-003
582.953,152.187, 7.4031e-003
583.457,152.36, 7.4097e-003
583.954,152.533, 7.4167e-003
584.445,152.707, 7.4239e-003
584.937,152.88, 7.4313e-003
585.436,153.053, 7.4386e-003
585.93,153.227, 7.4453e-003
586.424,153.4, 7.4527e-003
586.915,153.573, 7.4594e-003
587.403,153.747, 7.4668e-003
587.899,153.92, 7.4733e-003
588.392,154.093, 7.4809e-003
588.889,154.267, 7.4880e-003
589.383,154.44, 7.4948e-003
589.874,154.613, 7.5019e-003
590.371,154.787, 7.5094e-003
590.864,154.96, 7.5159e-003
591.348,155.133, 7.5235e-003
591.847,155.307, 7.5300e-003
592.341,155.48, 7.5374e-003
592.83,155.653, 7.5446e-003
593.327,155.827, 7.5515e-003
593.821,156, 7.5590e-003
594.318,156.173, 7.5662e-003
594.809,156.347, 7.5728e-003
595.301,156.52, 7.5810e-003
595.795,156.693, 7.5877e-003
596.286,156.867, 7.5944e-003
596.777,157.04, 7.6020e-003
597.26,157.213, 7.6092e-003
597.752,157.387, 7.6162e-003
598.23,157.56, 7.6238e-003
598.719,157.733, 7.6307e-003
599.197,157.907, 7.6383e-003
599.682,158.08, 7.6459e-003
600.16,158.253, 7.6528e-003
600.64,158.427, 7.6604e-003
601.122,158.6, 7.6672e-003
601.602,158.773, 7.6735e-003
602.071,158.947, 7.6811e-003
602.55,159.12, 7.6887e-003
603.025,159.293, 7.6951e-003
603.509,159.467, 7.7028e-003
603.987,159.64, 7.7094e-003
604.471,159.813, 7.7168e-003
604.956,159.987, 7.7241e-003
605.436,160.16, 7.7301e-003
605.922,160.333, 7.7381e-003
606.414,160.507, 7.7447e-003
606.9,160.68, 7.7511e-003
607.391,160.853, 7.7583e-003
607.887,161.027, 7.7648e-003
608.388,161.2, 7.7724e-003
608.879,161.373, 7.7785e-003
609.385,161.547, 7.7852e-003
609.886,161.72, 7.7924e-003
610.399,161.893, 7.8000e-003
610.902,162.067, 7.8073e-003
611.406,162.24, 7.8138e-003
611.916,162.413, 7.8212e-003
612.422,162.587, 7.8278e-003
612.933,162.76, 7.8358e-003
613.441,162.933, 7.8431e-003
613.944,163.107, 7.8497e-003
614.452,163.28, 7.8575e-003
614.95,163.453, 7.8642e-003
615.45,163.627, 7.8719e-003
615.957,163.8, 7.8787e-003
616.458,163.973, 7.8866e-003
616.951,164.147, 7.8933e-003
617.454,164.32, 7.8999e-003
617.954,164.493, 7.9074e-003
618.451,164.667, 7.9143e-003
618.95,164.84, 7.9219e-003
619.448,165.013, 7.9293e-003
619.946,165.187, 7.9359e-003
620.441,165.36, 7.9435e-003
620.933,165.533, 7.9503e-003
621.438,165.707, 7.9579e-003
621.932,165.88, 7.9648e-003
622.429,166.053, 7.9721e-003
622.914,166.227, 7.9794e-003
623.402,166.4, 7.9866e-003
623.891,166.573, 7.9930e-003
624.378,166.747, 8.0012e-003
624.867,166.92, 8.0077e-003
625.35,167.093, 8.0151e-003
625.842,167.267, 8.0219e-003
626.324,167.44, 8.0291e-003
626.813,167.613, 8.0364e-003
627.289,167.787, 8.0428e-003
627.778,167.96, 8.0504e-003
628.265,168.133, 8.0569e-003
628.752,168.307, 8.0640e-003
629.24,168.48, 8.0719e-003
629.723,168.653, 8.0783e-003
630.206,168.827, 8.0848e-003
630.685,169, 8.0921e-003
631.164,169.173, 8.0985e-003
631.647,169.347, 8.1063e-003
632.122,169.52, 8.1129e-003
632.61,169.693, 8.1200e-003
633.086,169.867, 8.1266e-003
633.564,170.04, 8.1336e-003
634.044,170.213, 8.1411e-003
634.529,170.387, 8.1478e-003
635.01,170.56, 8.1548e-003
635.493,170.733, 8.1620e-003
635.969,170.907, 8.1685e-003
636.449,171.08, 8.1760e-003
636.93,171.253, 8.1827e-003
637.409,171.427, 8.1900e-003
637.895,171.6, 8.1965e-003
638.368,171.773, 8.2038e-003
638.85,171.947, 8.2103e-003
639.327,172.12, 8.2176e-003
639.806,172.293, 8.2249e-003
640.281,172.467, 8.2312e-003
640.761,172.64, 8.2384e-003
641.234,172.813, 8.2458e-003
641.717,172.987, 8.2522e-003
642.191,173.16, 8.2594e-003
642.671,173.333, 8.2661e-003
643.151,173.507, 8.2736e-003
643.627,173.68, 8.2797e-003
644.101,173.853, 8.2871e-003
644.579,174.027, 8.2945e-003
645.062,174.2, 8.3011e-003
645.539,174.373, 8.3087e-003
646.021,174.547, 8.3153e-003
646.493,174.72, 8.3225e-003
646.97,174.893, 8.3289e-003
647.445,175.067, 8.3364e-003
647.923,175.24, 8.3431e-003
648.394,175.413, 8.3503e-003
648.869,175.587, 8.3570e-003
649.35,175.76, 8.3635e-003
649.822,175.933, 8.3709e-003
650.288,176.107, 8.3774e-003
650.767,176.28, 8.3847e-003
651.232,176.453, 8.3910e-003
651.718,176.627, 8.3985e-003
652.193,176.8, 8.4056e-003
652.667,176.973, 8.4120e-003
653.14,177.147, 8.4196e-003
653.614,177.32, 8.4266e-003
654.084,177.493, 8.4331e-003
654.556,177.667, 8.4401e-003
655.042,177.84, 8.4475e-003
655.507,178.013, 8.4537e-003
655.98,178.187, 8.4608e-003
656.453,178.36, 8.4674e-003
656.92,178.533, 8.4744e-003
657.395,178.707, 8.4817e-003
657.861,178.88, 8.4882e-003
658.327,179.053, 8.4951e-003
658.802,179.227, 8.5018e-003
659.276,179.4, 8.5090e-003
659.748,179.573, 8.5156e-003
660.218,179.747, 8.5226e-003
660.693,179.92, 8.5301e-003
661.16,180.093, 8.5362e-003
661.635,180.267, 8.5434e-003
662.109,180.44, 8.5498e-003
662.576,180.613, 8.5566e-003
663.043,180.787, 8.5631e-003
663.515,180.96, 8.5701e-003
663.986,181.133, 8.5768e-003
664.456,181.307, 8.5843e-003
664.926,181.48, 8.5904e-003
665.395,181.653, 8.5977e-003
665.863,181.827, 8.6041e-003
666.337,182, 8.6112e-003
666.795,182.173, 8.6178e-003
667.26,182.347, 8.6243e-003
667.728,182.52, 8.6314e-003
668.201,182.693, 8.6378e-003
668.682,182.867, 8.6449e-003
669.141,183.04, 8.6516e-003
669.616,183.213, 8.6581e-003
670.084,183.387, 8.6646e-003
670.555,183.56, 8.6721e-003
671.013,183.733, 8.6785e-003
671.491,183.907, 8.6855e-003
671.959,184.08, 8.6925e-003
672.424,184.253, 8.6993e-003
672.889,184.427, 8.7060e-003
673.367,184.6, 8.7125e-003
673.835,184.773, 8.7195e-003
674.3,184.947, 8.7261e-003
674.766,185.12, 8.7329e-003
675.231,185.293, 8.7395e-003
675.708,185.467, 8.7466e-003
676.167,185.64, 8.7530e-003
676.625,185.813, 8.7601e-003
677.098,185.987, 8.7666e-003
677.567,186.16, 8.7743e-003
678.025,186.333, 8.7806e-003
678.486,186.507, 8.7879e-003
678.941,186.68, 8.7945e-003
679.401,186.853, 8.8018e-003
679.846,187.027, 8.8087e-003
680.304,187.2, 8.8157e-003
680.758,187.373, 8.8222e-003
681.213,187.547, 8.8289e-003
681.648,187.72, 8.8359e-003
682.099,187.893, 8.8423e-003
682.547,188.067, 8.8496e-003
683.003,188.24, 8.8560e-003
683.451,188.413, 8.8627e-003
683.902,188.587, 8.8692e-003
684.355,188.76, 8.8764e-003
684.825,188.933, 8.8826e-003
685.273,189.107, 8.8893e-003
685.728,189.28, 8.8954e-003
686.184,189.453, 8.9023e-003
686.646,189.627, 8.9084e-003
687.102,189.8, 8.9156e-003
687.562,189.973, 8.9217e-003
688.027,190.147, 8.9276e-003
688.494,190.32, 8.9343e-003
688.965,190.493, 8.9415e-003
689.44,190.667, 8.9480e-003
689.914,190.84, 8.9548e-003
690.386,191.013, 8.9617e-003
690.853,191.187, 8.9680e-003
691.331,191.36, 8.9749e-003
691.799,191.533, 8.9813e-003
692.266,191.707, 8.9875e-003
692.727,191.88, 8.9949e-003
693.202,192.053, 9.0011e-003
693.667,192.227, 9.0084e-003
694.137,192.4, 9.0149e-003
694.6,192.573, 9.0220e-003
695.075,192.747, 9.0285e-003
695.546,192.92, 9.0356e-003
696.015,193.093, 9.0420e-003
696.485,193.267, 9.0490e-003
696.947,193.44, 9.0551e-003
697.41,193.613, 9.0625e-003
697.872,193.787, 9.0687e-003
698.332,193.96, 9.0756e-003
698.798,194.133, 9.0818e-003
699.256,194.307, 9.0890e-003
699.719,194.48, 9.0959e-003
700.184,194.653, 9.1025e-003
700.64,194.827, 9.1088e-003
701.103,195, 9.1158e-003
701.566,195.173, 9.1218e-003
702.027,195.347, 9.1285e-003
702.49,195.52, 9.1357e-003
702.953,195.693, 9.1419e-003
703.418,195.867, 9.1487e-003
703.871,196.04, 9.1550e-003
704.332,196.213, 9.1617e-003
704.794,196.387, 9.1686e-003
705.25,196.56, 9.1748e-003
705.71,196.733, 9.1815e-003
706.166,196.907, 9.1886e-003
706.622,197.08, 9.1947e-003
707.081,197.253, 9.2018e-003
707.542,197.427, 9.2078e-003
708.003,197.6, 9.2149e-003
708.461,197.773, 9.2208e-003
708.917,197.947, 9.2278e-003
709.365,198.12, 9.2345e-003
709.817,198.293, 9.2406e-003
710.279,198.467, 9.2475e-003
710.742,198.64, 9.2539e-003
711.203,198.813, 9.2606e-003
711.669,198.987, 9.2678e-003
712.124,199.16, 9.2742e-003
712.583,199.333, 9.2809e-003
713.044,199.507, 9.2873e-003
713.504,199.68, 9.2939e-003
713.956,199.853, 9.3001e-003
714.416,200.027, 9.3067e-003
714.867,200.2, 9.3132e-003
715.321,200.373, 9.3200e-003
715.777,200.547, 9.3263e-003
716.237,200.72, 9.3331e-003
716.686,200.893, 9.3399e-003
717.149,201.067, 9.3458e-003
717.596,201.24, 9.3528e-003
718.043,201.413, 9.3597e-003
718.494,201.587, 9.3657e-003
718.956,201.76, 9.3728e-003
719.41,201.933, 9.3797e-003
719.87,202.107, 9.3858e-003
720.329,202.28, 9.3927e-003
720.783,202.453, 9.3988e-003
721.242,202.627, 9.4056e-003
721.695,202.8, 9.4117e-003
722.157,202.973, 9.4187e-003
722.611,203.147, 9.4248e-003
723.066,203.32, 9.4319e-003
723.523,203.493, 9.4387e-003
723.976,203.667, 9.4449e-003
724.43,203.84, 9.4517e-003
724.879,204.013, 9.4578e-003
725.341,204.187, 9.4652e-003
725.785,204.36, 9.4712e-003
726.243,204.533, 9.4781e-003
726.69,204.707, 9.4840e-003
727.144,204.88, 9.4908e-003
727.591,205.053, 9.4974e-003
728.049,205.227, 9.5045e-003
728.503,205.4, 9.5110e-003
728.952,205.573, 9.5179e-003
729.403,205.747, 9.5239e-003
729.86,205.92, 9.5305e-003
730.304,206.093, 9.5373e-003
730.756,206.267, 9.5439e-003
731.201,206.44, 9.5498e-003
731.65,206.613, 9.5569e-003
732.101,206.787, 9.5634e-003
732.56,206.96, 9.5698e-003
733.007,207.133, 9.5764e-003
733.458,207.307, 9.5831e-003
733.911,207.48, 9.5894e-003
734.362,207.653, 9.5961e-003
734.813,207.827, 9.6026e-003
735.266,208, 9.6091e-003
735.716,208.173, 9.6156e-003
736.166,208.347, 9.6226e-003
736.607,208.52, 9.6287e-003
737.061,208.693, 9.6358e-003
737.507,208.867, 9.6420e-003
737.963,209.04, 9.6483e-003
738.41,209.213, 9.6551e-003
737.788,209.387, 9.6526e-003
738.251,209.56, 9.6591e-003
738.811,209.733, 9.6667e-003
739.366,209.907, 9.6736e-003
739.913,210.08, 9.6811e-003
740.446,210.253, 9.6887e-003
740.926,210.427, 9.6954e-003
741.403,210.6, 9.7020e-003
741.898,210.773, 9.7093e-003
742.409,210.947, 9.7158e-003
742.899,211.12, 9.7232e-003
743.333,211.293, 9.7295e-003
743.785,211.467, 9.7356e-003
744.246,211.64, 9.7425e-003
744.732,211.813, 9.7497e-003
745.201,211.987, 9.7561e-003
745.693,212.16, 9.7636e-003
746.179,212.333, 9.7703e-003
746.624,212.507, 9.7766e-003
747.113,212.68, 9.7839e-003
747.627,212.853, 9.7918e-003
748.09,213.027, 9.7980e-003
748.54,213.2, 9.8049e-003
748.998,213.373, 9.8115e-003
749.489,213.547, 9.8192e-003
749.896,213.72, 9.8252e-003
750.346,213.893, 9.8323e-003
750.827,214.067, 9.8394e-003
751.288,214.24, 9.8461e-003
751.708,214.413, 9.8522e-003
752.122,214.587, 9.8591e-003
752.518,214.76, 9.8649e-003
752.907,214.933, 9.8712e-003
753.317,215.107, 9.8774e-003
753.704,215.28, 9.8831e-003
754.116,215.453, 9.8892e-003
754.479,215.627, 9.8947e-003
754.938,215.8, 9.9011e-003
755.408,215.973, 9.9081e-003
755.866,216.147, 9.9142e-003
756.301,216.32, 9.9211e-003
756.723,216.493, 9.9269e-003
757.105,216.667, 9.9326e-003
757.507,216.84, 9.9381e-003
757.899,217.013, 9.9448e-003
758.352,217.187, 9.9511e-003
758.912,217.36, 9.9586e-003
759.387,217.533, 9.9651e-003
759.837,217.707, 9.9721e-003
760.141,217.88, 9.9767e-003
760.408,218.053, 9.9823e-003
760.786,218.227, 9.9878e-003
761.383,218.4, 9.9957e-003
761.933,218.573, 1.0003e-002
762.575,218.747, 1.0011e-002
763.085,218.92, 1.0019e-002
763.596,219.093, 1.0025e-002
764.066,219.267, 1.0033e-002
764.739,219.44, 1.0041e-002
765.384,219.613, 1.0049e-002
765.852,219.787, 1.0055e-002
766.132,219.96, 1.0061e-002
766.514,220.133, 1.0066e-002
766.254,220.307, 1.0068e-002
766.922,220.48, 1.0076e-002
767.545,220.653, 1.0084e-002
768.045,220.827, 1.0091e-002
768.471,221, 1.0097e-002
768.688,221.173, 1.0101e-002
768.297,221.347, 1.0101e-002
768.527,221.52, 1.0105e-002
768.679,221.693, 1.0109e-002
768.996,221.867, 1.0114e-002
769.395,222.04, 1.0120e-002
769.814,222.213, 1.0127e-002
770.282,222.387, 1.0134e-002
770.717,222.56, 1.0140e-002
771.148,222.733, 1.0146e-002
771.64,222.907, 1.0153e-002
772.163,223.08, 1.0160e-002
772.715,223.253, 1.0167e-002
773.196,223.427, 1.0175e-002
773.62,223.6, 1.0181e-002
774.034,223.773, 1.0187e-002
774.429,223.947, 1.0193e-002
774.947,224.12, 1.0200e-002
775.305,224.293, 1.0207e-002
776.217,224.467, 1.0217e-002
776.84,224.64, 1.0225e-002
777.147,224.813, 1.0230e-002
776.892,224.987, 1.0230e-002
777.21,225.16, 1.0236e-002
777.795,225.333, 1.0244e-002
777.977,225.507, 1.0248e-002
778.453,225.68, 1.0254e-002
778.922,225.853, 1.0261e-002
779.546,226.027, 1.0269e-002
779.978,226.2, 1.0276e-002
780.44,226.373, 1.0283e-002
780.712,226.547, 1.0287e-002
780.834,226.72, 1.0291e-002
780.936,226.893, 1.0294e-002
781.888,227.067, 1.0305e-002
781.798,227.24, 1.0308e-002
782.307,227.413, 1.0315e-002
782.941,227.587, 1.0323e-002
783.619,227.76, 1.0331e-002
783.867,227.933, 1.0336e-002
785.481,228.107, 1.0353e-002
785.931,228.28, 1.0359e-002
785.761,228.453, 1.0359e-002
786.045,228.627, 1.0365e-002
786.45,228.8, 1.0371e-002
786.528,228.973, 1.0374e-002
788.15,229.147, 1.0391e-002
787.471,229.32, 1.0388e-002
787.996,229.493, 1.0395e-002
788.437,229.667, 1.0400e-002
786.412,229.84, 1.0386e-002
790.48,230.013, 1.0424e-002
790.971,230.187, 1.0431e-002
791.399,230.36, 1.0437e-002
791.794,230.533, 1.0443e-002
792.3,230.707, 1.0450e-002
792.711,230.88, 1.0456e-002
793.156,231.053, 1.0462e-002
793.607,231.227, 1.0470e-002
793.911,231.4, 1.0475e-002
794.301,231.573, 1.0482e-002
794.808,231.747, 1.0488e-002
795.29,231.92, 1.0496e-002
795.737,232.093, 1.0502e-002
795.972,232.267, 1.0507e-002
796.305,232.44, 1.0512e-002
796.64,232.613, 1.0518e-002
796.605,232.787, 1.0520e-002
796.865,232.96, 1.0525e-002
798.764,233.133, 1.0544e-002
799.241,233.307, 1.0551e-002
799.675,233.48, 1.0558e-002
800.1,233.653, 1.0564e-002
800.526,233.827, 1.0571e-002
800.927,234, 1.0576e-002
801.35,234.173, 1.0583e-002
801.69,234.347, 1.0588e-002
802.072,234.52, 1.0594e-002
802.473,234.693, 1.0600e-002
802.866,234.867, 1.0606e-002
803.301,235.04, 1.0612e-002
803.764,235.213, 1.0619e-002
804.196,235.387, 1.0625e-002
804.642,235.56, 1.0631e-002
805.118,235.733, 1.0638e-002
805.595,235.907, 1.0644e-002
805.995,236.08, 1.0651e-002
806.258,236.253, 1.0655e-002
806.788,236.427, 1.0663e-002
807.181,236.6, 1.0669e-002
807.347,236.773, 1.0673e-002
807.405,236.947, 1.0676e-002
808.122,237.12, 1.0684e-002
808.58,237.293, 1.0691e-002
809.336,237.467, 1.0700e-002
809.777,237.64, 1.0706e-002
810.191,237.813, 1.0713e-002
810.524,237.987, 1.0718e-002
810.867,238.16, 1.0724e-002
811.132,238.333, 1.0728e-002
811.403,238.507, 1.0733e-002
811.868,238.68, 1.0739e-002
812.295,238.853, 1.0746e-002
812.767,239.027, 1.0752e-002
813.325,239.2, 1.0759e-002
813.725,239.373, 1.0766e-002
813.971,239.547, 1.0770e-002
814.106,239.72, 1.0774e-002
814.293,239.893, 1.0778e-002
814.671,240.067, 1.0784e-002
812.653,240.24, 1.0769e-002
815.518,240.413, 1.0795e-002
816.477,240.587, 1.0805e-002
816.967,240.76, 1.0813e-002
817.414,240.933, 1.0819e-002
817.944,241.107, 1.0826e-002
818.435,241.28, 1.0832e-002
818.87,241.453, 1.0838e-002
819.279,241.627, 1.0845e-002
819.712,241.8, 1.0851e-002
820.118,241.973, 1.0857e-002
820.594,242.147, 1.0864e-002
821.054,242.32, 1.0871e-002
821.5,242.493, 1.0877e-002
821.879,242.667, 1.0883e-002
822.384,242.84, 1.0891e-002
822.801,243.013, 1.0896e-002
823.241,243.187, 1.0904e-002
823.666,243.36, 1.0910e-002
824.141,243.533, 1.0917e-002
824.625,243.707, 1.0923e-002
825.015,243.88, 1.0929e-002
825.503,244.053, 1.0936e-002
825.906,244.227, 1.0941e-002
826.371,244.4, 1.0948e-002
826.872,244.573, 1.0955e-002
827.357,244.747, 1.0962e-002
827.802,244.92, 1.0968e-002
828.24,245.093, 1.0975e-002
828.675,245.267, 1.0981e-002
829.109,245.44, 1.0987e-002
829.523,245.613, 1.0994e-002
829.958,245.787, 1.1000e-002
830.401,245.96, 1.1007e-002
830.844,246.133, 1.1013e-002
831.274,246.307, 1.1019e-002
831.65,246.48, 1.1026e-002
832.116,246.653, 1.1032e-002
832.503,246.827, 1.1039e-002
832.954,247, 1.1045e-002
833.298,247.173, 1.1051e-002
833.986,247.347, 1.1059e-002
834.304,247.52, 1.1065e-002
834.654,247.693, 1.1071e-002
834.952,247.867, 1.1076e-002
835.056,248.04, 1.1080e-002
835.56,248.213, 1.1086e-002
836.047,248.387, 1.1094e-002
836.52,248.56, 1.1100e-002
837.008,248.733, 1.1107e-002
837.472,248.907, 1.1114e-002
837.888,249.08, 1.1119e-002
837.575,249.253, 1.1120e-002
838.53,249.427, 1.1130e-002
823.706,249.6, 1.1006e-002
838.694,249.773, 1.1137e-002
836.464,249.947, 1.1120e-002
838.412,250.12, 1.1139e-002
839.125,250.293, 1.1148e-002
840.832,250.467, 1.1165e-002
841.122,250.64, 1.1170e-002
841.845,250.813, 1.1179e-002
842.151,250.987, 1.1184e-002
840.98,251.16, 1.1177e-002
843.227,251.333, 1.1199e-002
843.45,251.507, 1.1203e-002
843.781,251.68, 1.1208e-002
839.452,251.853, 1.1174e-002
812.369,251.983, 1.0943e-002