File: data_backup/16.6mm-091419/sanMtT0p2s1r16mm-111418.csv
#EXPORTTYPE:           ,DATA ALL
#FILE:                 ,sanidMt2P1run1.ngb-sle
#FORMAT:               ,NETZSCH5
#FTYPE:                ,ANSI
#IDENTITY:             ,mt t perp
#DECIMAL:              ,POINT
#SEPARATOR:            ,COMMA
#MTYPE:                ,DIL
#INSTRUMENT:           ,NETZSCH DIL 402C
#PROJECT:              ,morb
#DATE/TIME:            ,11/14/2018 10:12:25 AM (UTC-6)
#CORR. FILE:           ,
#TEMPCAL:              ,TCALZERO.TMX
#LABORATORY:           ,min phys
#OPERATOR:             ,amh
#REMARK:               ,bare, norm start, calib run
#SAMPLE:               ,mt t ortho010
#SAMPLE LENGTH /mm:    ,6.063
#MATERIAL:             ,sapphire stnd
#MEASMODE:             ,Standard Expansion
#PURGE GAS 1:          ,ARGON
#FLOW RATE 1 /(ml/min):,75
#M.RANGE /µm:          ,500
#CORR. CODE:           ,010
#RANGE:                ,20.0°C/3.0(K/min)/950.0°C
#SEGMENT:              ,S1/1
#SEG. 1:               ,20.0°C/3.0(K/min)/950.0°C

##Temp./°C,Time/min,dL/Lo
 21.91400, 0.00000, 1.7930e-005
 21.92400, 0.02167, 1.8497e-005
 21.92000, 0.04333, 1.8118e-005
 21.92700, 0.06500, 1.8951e-005
 21.92500, 0.08667, 1.8215e-005
 21.92400, 0.10833, 1.8497e-005
 21.92600, 0.13000, 1.8428e-005
 21.93600, 0.15167, 1.8933e-005
 21.93300, 0.17333, 1.9138e-005
 21.93800, 0.19500, 1.9607e-005
 21.94500, 0.21667, 1.9533e-005
 21.94000, 0.23833, 1.9765e-005
 21.93700, 0.26000, 1.9888e-005
 21.94000, 0.28167, 2.0198e-005
 21.94600, 0.30333, 2.0179e-005
 21.94400, 0.32500, 2.0103e-005
 21.94300, 0.34667, 2.0694e-005
 21.94600, 0.36833, 2.0819e-005
 21.94400, 0.39000, 2.0536e-005
 21.94500, 0.41167, 2.0482e-005
 21.94300, 0.43333, 2.0818e-005
 21.95300, 0.45500, 2.1714e-005
 21.95400, 0.47667, 2.1432e-005
 21.95200, 0.49833, 2.1624e-005
 21.95000, 0.52000, 2.1651e-005
 21.95200, 0.54167, 2.2119e-005
 21.94600, 0.56333, 2.1788e-005
 21.94700, 0.58500, 2.2145e-005
 21.95200, 0.60667, 2.1995e-005
 21.95300, 0.62833, 2.2600e-005
 21.95200, 0.65000, 2.1933e-005
 21.95200, 0.67167, 2.2449e-005
 21.94900, 0.69333, 2.2592e-005
 21.95200, 0.71500, 2.1933e-005
 21.95600, 0.73667, 2.2560e-005
 21.95300, 0.75833, 2.2291e-005
 21.95400, 0.78000, 2.2628e-005
 21.94400, 0.80167, 2.2289e-005
 21.93700, 0.82333, 2.2424e-005
 21.93400, 0.84500, 2.2155e-005
 21.93800, 0.86667, 2.1978e-005
 21.93800, 0.88833, 2.2163e-005
 21.93700, 0.91000, 2.2569e-005
 21.93300, 0.93167, 2.2169e-005
 21.93400, 0.95333, 2.2341e-005
 21.93700, 0.97500, 2.1641e-005
 21.93800, 0.99667, 2.1854e-005
 21.93600, 1.01833, 2.1757e-005
 21.93300, 1.04000, 2.1344e-005
 21.93700, 1.06167, 2.2053e-005
 21.94000, 1.08333, 2.1724e-005
 21.94300, 1.10500, 2.1746e-005
 21.93900, 1.12667, 2.1861e-005
 21.93800, 1.14833, 2.1627e-005
 21.93500, 1.17000, 2.1833e-005
 21.93900, 1.19167, 2.1799e-005
 21.93500, 1.21333, 2.1255e-005
 21.93900, 1.23500, 2.1882e-005
 21.93000, 1.25667, 2.1364e-005
 21.93700, 1.27833, 2.1579e-005
 21.93500, 1.30000, 2.0699e-005
 21.93800, 1.32167, 2.0803e-005
 21.93900, 1.34333, 2.0748e-005
 21.93500, 1.36500, 2.0802e-005
 21.93600, 1.38667, 2.0541e-005
 21.93900, 1.40833, 2.0253e-005
 21.93600, 1.43000, 2.0355e-005
 21.93600, 1.45167, 2.0603e-005
 21.93400, 1.47333, 2.0485e-005
 21.93300, 1.49500, 2.0478e-005
 21.93400, 1.51667, 2.0403e-005
 21.93900, 1.53833, 2.0129e-005
 21.93100, 1.56000, 1.9784e-005
 21.93100, 1.58167, 1.9660e-005
 21.92800, 1.60333, 1.9597e-005
 21.93600, 1.62500, 1.9654e-005
 21.93600, 1.64667, 1.9283e-005
 21.93600, 1.66833, 1.9840e-005
 21.93700, 1.69000, 1.9723e-005
 21.94000, 1.71167, 1.9580e-005
 21.93300, 1.73333, 1.9221e-005
 21.93800, 1.75500, 1.9236e-005
 21.93400, 1.77667, 1.8671e-005
 21.93300, 1.79833, 1.8788e-005
 21.93000, 1.82000, 1.8498e-005
 21.93200, 1.84167, 1.8492e-005
 21.92300, 1.86333, 1.7912e-005
 21.92300, 1.88500, 1.7850e-005
 21.92900, 1.90667, 1.7687e-005
 21.92600, 1.92833, 1.7563e-005
 21.92000, 1.95000, 1.6736e-005
 21.92200, 1.97167, 1.7348e-005
 21.92200, 1.99333, 1.6647e-005
 21.92700, 2.01500, 1.7199e-005
 21.92300, 2.03667, 1.6861e-005
 21.91900, 2.05833, 1.6832e-005
 21.91400, 2.08000, 1.6570e-005
 21.92200, 2.10167, 1.6544e-005
 21.92000, 2.12333, 1.6881e-005
 21.91400, 2.14500, 1.5992e-005
 21.91200, 2.16667, 1.6349e-005
 21.91600, 2.18833, 1.5842e-005
 21.91400, 2.21000, 1.5601e-005
 21.91900, 2.23167, 1.5719e-005
 21.91400, 2.25333, 1.5642e-005
 21.91400, 2.27500, 1.5518e-005
 21.91400, 2.29667, 1.5271e-005
 21.90800, 2.31833, 1.4671e-005
 21.91000, 2.34000, 1.4995e-005
 21.91000, 2.36167, 1.5015e-005
 21.90800, 2.38333, 1.4836e-005
 21.91500, 2.40500, 1.4185e-005
 21.91400, 2.42667, 1.4405e-005
 21.91600, 2.44833, 1.4646e-005
 21.91700, 2.47000, 1.4777e-005
 21.91100, 2.49167, 1.4012e-005
 21.91600, 2.51333, 1.3821e-005
 21.91900, 2.53500, 1.3801e-005
 21.91900, 2.55667, 1.3740e-005
 21.92000, 2.57833, 1.3788e-005
 21.92000, 2.60000, 1.3520e-005
 21.91900, 2.62167, 1.3410e-005
 21.91900, 2.64333, 1.3080e-005
 21.92000, 2.66500, 1.2716e-005
 21.91600, 2.68667, 1.2461e-005
 21.91500, 2.70833, 1.2371e-005
 21.91900, 2.73000, 1.2482e-005
 21.91800, 2.75167, 1.2392e-005
 21.91900, 2.77333, 1.2338e-005
 21.92300, 2.79500, 1.2799e-005
 21.92000, 2.81667, 1.2716e-005
 21.92200, 2.83833, 1.2297e-005
 21.92200, 2.86000, 1.2400e-005
 21.92000, 2.88167, 1.1706e-005
 21.92400, 2.90333, 1.2147e-005
 21.92100, 2.92500, 1.1404e-005
 21.92000, 2.94667, 1.1170e-005
 21.91400, 2.96833, 1.1106e-005
 21.92000, 2.99000, 1.1252e-005
 21.91700, 3.01167, 1.0942e-005
 21.92100, 3.03333, 1.0764e-005
 21.92100, 3.05500, 1.1136e-005
 21.92300, 3.07667, 1.1088e-005
 21.92300, 3.09833, 1.0676e-005
 21.91900, 3.12000, 1.0358e-005
 21.91900, 3.14167, 1.0152e-005
 21.92100, 3.16333, 9.5893e-006
 21.92600, 3.18500, 9.5425e-006
 21.92900, 3.20667, 9.6258e-006
 21.92700, 3.22833, 9.2817e-006
 21.92700, 3.25000, 8.6425e-006
 21.93000, 3.27167, 8.5609e-006
 21.93200, 3.29333, 7.9567e-006
 21.93200, 3.31500, 8.1628e-006
 21.93500, 3.33667, 7.7719e-006
 21.93600, 3.35833, 7.6760e-006
 21.94300, 3.38000, 7.0457e-006
 21.95200, 3.40167, 6.8832e-006
 21.95100, 3.42333, 6.9173e-006
 21.95700, 3.44500, 6.5272e-006
 21.96500, 3.46667, 6.2339e-006
 21.96700, 3.48833, 5.6709e-006
 21.97000, 3.51000, 5.5274e-006
 21.97400, 3.53167, 4.8550e-006
 21.98500, 3.55333, 5.0367e-006
 21.98700, 3.57500, 4.7211e-006
 22.00100, 3.59667, 3.9758e-006
 22.00900, 3.61833, 3.6619e-006
 22.02500, 3.64000, 3.0134e-006
 22.04500, 3.66167, 2.9295e-006
 22.05300, 3.68333, 2.1414e-006
 22.05700, 3.70500, 1.7164e-006
 22.06700, 3.72667, 1.1487e-006
 22.07900, 3.74833, 4.7168e-007
 22.09200, 3.77000,-1.2712e-008
 22.10600, 3.79167,-4.6931e-007
 22.11800, 3.81333,-1.4556e-006
 22.13300, 3.83500,-1.9670e-006
 22.14400, 3.85667,-2.4244e-006
 22.16100, 3.87833,-2.7771e-006
 22.17900, 3.90000,-3.2670e-006
 22.19700, 3.92167,-4.5403e-006
 22.21200, 3.94333,-4.7217e-006
 22.23200, 3.96500,-5.3829e-006
 22.24300, 3.98667,-6.5207e-006
 22.25100, 4.00833,-7.2675e-006
 22.27900, 4.03000,-7.9952e-006
 22.29900, 4.05167,-8.2440e-006
 22.32100, 4.07333,-9.4475e-006
 22.35300, 4.09500,-1.0291e-005
 22.37500, 4.11667,-1.1123e-005
 22.39700, 4.13833,-1.1461e-005
 22.42000, 4.16000,-1.2657e-005
 22.44700, 4.18167,-1.3598e-005
 22.46800, 4.20333,-1.4479e-005
 22.49800, 4.22500,-1.5398e-005
 22.52900, 4.24667,-1.6476e-005
 22.56100, 4.26833,-1.7319e-005
 22.58700, 4.29000,-1.8618e-005
 22.61800, 4.31167,-1.9386e-005
 22.64300, 4.33333,-2.0258e-005
 22.67400, 4.35500,-2.1356e-005
 22.71100, 4.37667,-2.2432e-005
 22.73700, 4.39833,-2.3710e-005
 22.77800, 4.42000,-2.4901e-005
 22.80100, 4.44167,-2.5809e-005
 22.84600, 4.46333,-2.6745e-005
 22.88000, 4.48500,-2.8130e-005
 22.92000, 4.50667,-2.9576e-005
 22.95300, 4.52833,-3.0969e-005
 22.98800, 4.55000,-3.2781e-005
 23.03200, 4.57167,-3.4383e-005
 23.07100, 4.59333,-3.5341e-005
 23.11700, 4.61500,-3.6311e-005
 23.16300, 4.63667,-3.8127e-005
 23.20400, 4.65833,-3.8947e-005
 23.24500, 4.68000,-4.0406e-005
 23.29700, 4.70167,-4.2570e-005
 23.34300, 4.72333,-4.3705e-005
 23.38400, 4.74500,-4.5164e-005
 23.43400, 4.76667,-4.6703e-005
 23.48600, 4.78833,-4.7981e-005
 23.52300, 4.81000,-4.9077e-005
 23.57700, 4.83167,-5.1185e-005
 23.63000, 4.85333,-5.2435e-005
 23.68100, 4.87500,-5.4091e-005
 23.73300, 4.89667,-5.5451e-005
 23.78600, 4.91833,-5.7236e-005
 23.84400, 4.94000,-5.9027e-005
 23.90100, 4.96167,-6.0145e-005
 23.95100, 4.98333,-6.1849e-005
 24.01500, 5.00500,-6.3206e-005
 24.07000, 5.02667,-6.5183e-005
 24.13000, 5.04833,-6.6156e-005
 24.19300, 5.07000,-6.8076e-005
 24.25600, 5.09167,-7.0141e-005
 24.30900, 5.11333,-7.1225e-005
 24.37700, 5.13500,-7.3027e-005
 24.44700, 5.15667,-7.3578e-005
 24.51100, 5.17833,-7.6480e-005
 24.57800, 5.20000,-7.7795e-005
 24.63300, 5.22167,-7.9380e-005
 24.70300, 5.24333,-8.1085e-005
 24.76500, 5.26500,-8.2456e-005
 24.83500, 5.28667,-8.4037e-005
 24.89800, 5.30833,-8.6514e-005
 24.96600, 5.33000,-8.7449e-005
 25.03600, 5.35167,-9.0082e-005
 25.11400, 5.37333,-9.1359e-005
 25.18300, 5.39500,-9.2947e-005
 25.25600, 5.41667,-9.4074e-005
 25.32100, 5.43833,-9.5897e-005
 25.40000, 5.46000,-9.8486e-005
 25.48300, 5.48167,-1.0043e-004
 25.55900, 5.50333,-1.0192e-004
 25.63800, 5.52500,-1.0344e-004
 25.71300, 5.54667,-1.0455e-004
 25.79000, 5.56833,-1.0666e-004
 25.85900, 5.59000,-1.0843e-004
 25.94400, 5.61167,-1.1003e-004
 26.02600, 5.63333,-1.1138e-004
 26.10400, 5.65500,-1.1286e-004
 26.18500, 5.67667,-1.1480e-004
 26.27200, 5.69833,-1.1630e-004
 26.34600, 5.72000,-1.1843e-004
 26.43000, 5.74167,-1.2014e-004
 26.51300, 5.76333,-1.2136e-004
 26.60900, 5.78500,-1.2302e-004
 26.68700, 5.80667,-1.2456e-004
 26.77200, 5.82833,-1.2651e-004
 26.85700, 5.85000,-1.2833e-004
 26.95400, 5.87167,-1.3071e-004
 27.02800, 5.89333,-1.3175e-004
 27.12900, 5.91500,-1.3294e-004
 27.20900, 5.93667,-1.3476e-004
 27.30000, 5.95833,-1.3654e-004
 27.39100, 5.98000,-1.3811e-004
 27.47900, 6.00167,-1.4033e-004
 27.56500, 6.02333,-1.4153e-004
 27.65600, 6.04500,-1.4314e-004
 27.74700, 6.06667,-1.4494e-004
 27.83600, 6.08833,-1.4634e-004
 27.92700, 6.11000,-1.4833e-004
 28.02400, 6.13167,-1.5001e-004
 28.11000, 6.15333,-1.5114e-004
 28.20300, 6.17500,-1.5278e-004
 28.30000, 6.19667,-1.5382e-004
 28.38200, 6.21833,-1.5507e-004
 28.48000, 6.24000,-1.5643e-004
 28.58000, 6.26167,-1.5857e-004
 28.68700, 6.28333,-1.5931e-004
 28.77200, 6.30500,-1.6089e-004
 28.87500, 6.32667,-1.6254e-004
 28.95500, 6.34833,-1.6374e-004
 29.05400, 6.37000,-1.6593e-004
 29.15900, 6.39167,-1.6704e-004
 29.24600, 6.41333,-1.6817e-004
 29.34700, 6.43500,-1.6946e-004
 29.44300, 6.45667,-1.7069e-004
 29.55000, 6.47833,-1.7217e-004
 29.65100, 6.50000,-1.7425e-004
 29.75500, 6.52167,-1.7459e-004
 29.84800, 6.54333,-1.7667e-004
 29.94700, 6.56500,-1.7769e-004
 30.04000, 6.58667,-1.7937e-004
 30.14800, 6.60833,-1.7996e-004
 30.24300, 6.63000,-1.8138e-004
 30.35400, 6.65167,-1.8252e-004
 30.44800, 6.67333,-1.8461e-004
 30.55400, 6.69500,-1.8580e-004
 30.65400, 6.71667,-1.8610e-004
 30.76200, 6.73833,-1.8713e-004
 30.86600, 6.76000,-1.8843e-004
 30.96100, 6.78167,-1.8952e-004
 31.06800, 6.80333,-1.9067e-004
 31.17700, 6.82500,-1.9158e-004
 31.27400, 6.84667,-1.9257e-004
 31.37600, 6.86833,-1.9412e-004
 31.48400, 6.89000,-1.9481e-004
 31.58700, 6.91167,-1.9698e-004
 31.68200, 6.93333,-1.9758e-004
 31.78300, 6.95500,-1.9895e-004
 31.89000, 6.97667,-1.9950e-004
 31.99400, 6.99833,-2.0065e-004
 32.10400, 7.02000,-2.0083e-004
 32.21100, 7.04167,-2.0140e-004
 32.31600, 7.06333,-2.0242e-004
 32.41700, 7.08500,-2.0310e-004
 32.51800, 7.10667,-2.0416e-004
 32.62300, 7.12833,-2.0516e-004
 32.73100, 7.15000,-2.0649e-004
 32.82800, 7.17167,-2.0688e-004
 32.94300, 7.19333,-2.0746e-004
 33.05100, 7.21500,-2.0798e-004
 33.14600, 7.23667,-2.0876e-004
 33.25200, 7.25833,-2.1020e-004
 33.36400, 7.28000,-2.1119e-004
 33.46700, 7.30167,-2.1196e-004
 33.57500, 7.32333,-2.1246e-004
 33.67400, 7.34500,-2.1362e-004
 33.77900, 7.36667,-2.1454e-004
 33.87800, 7.38833,-2.1504e-004
 33.98800, 7.41000,-2.1514e-004
 34.10200, 7.43167,-2.1656e-004
 34.19000, 7.45333,-2.1694e-004
 34.30400, 7.47500,-2.1728e-004
 34.40800, 7.49667,-2.1803e-004
 34.50700, 7.51833,-2.1907e-004
 34.61300, 7.54000,-2.1969e-004
 34.71400, 7.56167,-2.2002e-004
 34.83200, 7.58333,-2.2051e-004
 34.93100, 7.60500,-2.2091e-004
 35.03200, 7.62667,-2.2197e-004
 35.14700, 7.64833,-2.2263e-004
 35.25500, 7.67000,-2.2245e-004
 35.35300, 7.69167,-2.2290e-004
 35.46200, 7.71333,-2.2286e-004
 35.56300, 7.73500,-2.2386e-004
 35.67300, 7.75667,-2.2371e-004
 35.77500, 7.77833,-2.2446e-004
 35.87900, 7.80000,-2.2505e-004
 35.99000, 7.82167,-2.2570e-004
 36.08600, 7.84333,-2.2556e-004
 36.20300, 7.86500,-2.2602e-004
 36.30600, 7.88667,-2.2684e-004
 36.41900, 7.90833,-2.2727e-004
 36.51800, 7.93000,-2.2773e-004
 36.62700, 7.95167,-2.2748e-004
 36.73300, 7.97333,-2.2779e-004
 36.83500, 7.99500,-2.2792e-004
 36.94000, 8.01667,-2.2842e-004
 37.04100, 8.03833,-2.2872e-004
 37.15300, 8.06000,-2.2916e-004
 37.26000, 8.08167,-2.2935e-004
 37.35700, 8.10333,-2.2921e-004
 37.46200, 8.12500,-2.2961e-004
 37.57300, 8.14667,-2.3009e-004
 37.67900, 8.16833,-2.3005e-004
 37.77500, 8.19000,-2.2981e-004
 37.88100, 8.21167,-2.3111e-004
 37.99600, 8.23333,-2.3114e-004
 38.09300, 8.25500,-2.3098e-004
 38.19100, 8.27667,-2.3153e-004
 38.30400, 8.29833,-2.3150e-004
 38.40100, 8.32000,-2.3183e-004
 38.50800, 8.34167,-2.3228e-004
 38.61000, 8.36333,-2.3183e-004
 38.72100, 8.38500,-2.3225e-004
 38.82500, 8.40667,-2.3311e-004
 38.92800, 8.42833,-2.3304e-004
 39.03000, 8.45000,-2.3266e-004
 39.13900, 8.47167,-2.3311e-004
 39.24200, 8.49333,-2.3317e-004
 39.35200, 8.51500,-2.3314e-004
 39.45000, 8.53667,-2.3293e-004
 39.56000, 8.55833,-2.3259e-004
 39.66400, 8.58000,-2.3265e-004
 39.76800, 8.60167,-2.3204e-004
 39.87200, 8.62333,-2.3257e-004
 39.97600, 8.64500,-2.3250e-004
 40.08600, 8.66667,-2.3276e-004
 40.19100, 8.68833,-2.3361e-004
 40.29000, 8.71000,-2.3325e-004
 40.40000, 8.73167,-2.3342e-004
 40.51000, 8.75333,-2.3329e-004
 40.60900, 8.77500,-2.3274e-004
 40.71500, 8.79667,-2.3257e-004
 40.82200, 8.81833,-2.3252e-004
 40.92300, 8.84000,-2.3241e-004
 41.02800, 8.86167,-2.3238e-004
 41.13600, 8.88333,-2.3244e-004
 41.24400, 8.90500,-2.3278e-004
 41.34300, 8.92667,-2.3210e-004
 41.45600, 8.94833,-2.3304e-004
 41.56900, 8.97000,-2.3233e-004
 41.66200, 8.99167,-2.3213e-004
 41.77200, 9.01333,-2.3272e-004
 41.87600, 9.03500,-2.3205e-004
 41.98600, 9.05667,-2.3184e-004
 42.09000, 9.07833,-2.3170e-004
 42.19500, 9.10000,-2.3216e-004
 42.31100, 9.12167,-2.3221e-004
 42.41700, 9.14333,-2.3186e-004
 42.51600, 9.16500,-2.3183e-004
 42.61700, 9.18667,-2.3231e-004
 42.72400, 9.20833,-2.3173e-004
 42.82800, 9.23000,-2.3127e-004
 42.93400, 9.25167,-2.3102e-004
 43.03800, 9.27333,-2.3082e-004
 43.15200, 9.29500,-2.3037e-004
 43.25600, 9.31667,-2.2976e-004
 43.36500, 9.33833,-2.3052e-004
 43.47500, 9.36000,-2.2973e-004
 43.57800, 9.38167,-2.2979e-004
 43.68400, 9.40333,-2.2917e-004
 43.78500, 9.42500,-2.2918e-004
 43.90300, 9.44667,-2.2883e-004
 44.01100, 9.46833,-2.2900e-004
 44.11800, 9.49000,-2.2909e-004
 44.22700, 9.51167,-2.2861e-004
 44.33800, 9.53333,-2.2884e-004
 44.42400, 9.55500,-2.2839e-004
 44.54000, 9.57667,-2.2852e-004
 44.63900, 9.59833,-2.2819e-004
 44.75900, 9.62000,-2.2768e-004
 44.86000, 9.64167,-2.2678e-004
 44.96800, 9.66333,-2.2660e-004
 45.08900, 9.68500,-2.2707e-004
 45.19900, 9.70667,-2.2599e-004
 45.30600, 9.72833,-2.2583e-004
 45.42000, 9.75000,-2.2532e-004
 45.51900, 9.77167,-2.2572e-004
 45.63100, 9.79333,-2.2565e-004
 45.73900, 9.81500,-2.2528e-004
 45.84300, 9.83667,-2.2503e-004
 45.95800, 9.85833,-2.2483e-004
 46.05900, 9.88000,-2.2470e-004
 46.17800, 9.90167,-2.2457e-004
 46.28200, 9.92333,-2.2431e-004
 46.39100, 9.94500,-2.2404e-004
 46.50400, 9.96667,-2.2293e-004
 46.61200, 9.98833,-2.2277e-004
 46.72200,10.01000,-2.2317e-004
 46.83200,10.03167,-2.2267e-004
 46.93500,10.05333,-2.2174e-004
 47.04800,10.07500,-2.2191e-004
 47.15100,10.09667,-2.2148e-004
 47.26000,10.11833,-2.2151e-004
 47.36600,10.14000,-2.2118e-004
 47.47600,10.16167,-2.2168e-004
 47.58700,10.18333,-2.2125e-004
 47.69200,10.20500,-2.2023e-004
 47.80600,10.22667,-2.1978e-004
 47.91800,10.24833,-2.1956e-004
 48.02500,10.27000,-2.1980e-004
 48.12800,10.29167,-2.1910e-004
 48.23600,10.31333,-2.1861e-004
 48.35000,10.33500,-2.1818e-004
 48.47800,10.35667,-2.1785e-004
 48.58300,10.37833,-2.1767e-004
 48.69600,10.40000,-2.1743e-004
 48.80900,10.42167,-2.1676e-004
 48.91600,10.44333,-2.1675e-004
 49.03100,10.46500,-2.1660e-004
 49.13900,10.48667,-2.1602e-004
 49.25100,10.50833,-2.1573e-004
 49.36200,10.53000,-2.1544e-004
 49.47200,10.55167,-2.1498e-004
 49.58200,10.57333,-2.1406e-004
 49.69100,10.59500,-2.1488e-004
 49.80200,10.61667,-2.1381e-004
 49.91600,10.63833,-2.1366e-004
 50.02300,10.66000,-2.1359e-004
 50.13000,10.68167,-2.1323e-004
 50.24600,10.70333,-2.1305e-004
 50.35400,10.72500,-2.1242e-004
 50.47000,10.74667,-2.1201e-004
 50.57600,10.76833,-2.1149e-004
 50.68800,10.79000,-2.1159e-004
 50.80200,10.81167,-2.1134e-004
 50.91100,10.83333,-2.1054e-004
 51.01900,10.85500,-2.1011e-004
 51.13200,10.87667,-2.0997e-004
 51.24000,10.89833,-2.0981e-004
 51.35500,10.92000,-2.0875e-004
 51.46800,10.94167,-2.0771e-004
 51.58300,10.96333,-2.0830e-004
 51.69700,10.98500,-2.0768e-004
 51.81100,11.00667,-2.0714e-004
 51.92600,11.02833,-2.0701e-004
 52.03200,11.05000,-2.0681e-004
 52.14100,11.07167,-2.0624e-004
 52.25900,11.09333,-2.0617e-004
 52.36700,11.11500,-2.0546e-004
 52.48200,11.13667,-2.0473e-004
 52.59500,11.15833,-2.0529e-004
 52.70200,11.18000,-2.0497e-004
 52.81800,11.20167,-2.0405e-004
 52.93500,11.22333,-2.0339e-004
 53.04100,11.24500,-2.0318e-004
 53.15900,11.26667,-2.0214e-004
 53.27400,11.28833,-2.0164e-004
 53.38600,11.31000,-2.0172e-004
 53.49700,11.33167,-2.0110e-004
 53.60600,11.35333,-2.0099e-004
 53.73500,11.37500,-2.0031e-004
 53.84300,11.39667,-1.9926e-004
 53.96000,11.41833,-1.9874e-004
 54.07200,11.44000,-1.9804e-004
 54.18900,11.46167,-1.9843e-004
 54.29600,11.48333,-1.9764e-004
 54.40600,11.50500,-1.9709e-004
 54.52000,11.52667,-1.9686e-004
 54.64000,11.54833,-1.9577e-004
 54.75600,11.57000,-1.9509e-004
 54.87500,11.59167,-1.9483e-004
 54.98500,11.61333,-1.9447e-004
 55.10400,11.63500,-1.9353e-004
 55.21200,11.65667,-1.9264e-004
 55.32900,11.67833,-1.9285e-004
 55.44300,11.70000,-1.9165e-004
 55.55900,11.72167,-1.9108e-004
 55.67200,11.74333,-1.9068e-004
 55.78700,11.76500,-1.8982e-004
 55.89800,11.78667,-1.8929e-004
 56.02000,11.80833,-1.8870e-004
 56.13000,11.83000,-1.8825e-004
 56.25100,11.85167,-1.8756e-004
 56.36300,11.87333,-1.8712e-004
 56.48000,11.89500,-1.8659e-004
 56.59600,11.91667,-1.8672e-004
 56.71400,11.93833,-1.8590e-004
 56.82500,11.96000,-1.8541e-004
 56.94200,11.98167,-1.8479e-004
 57.06000,12.00333,-1.8392e-004
 57.16400,12.02500,-1.8335e-004
 57.28400,12.04667,-1.8277e-004
 57.39700,12.06833,-1.8245e-004
 57.50600,12.09000,-1.8131e-004
 57.62700,12.11167,-1.8066e-004
 57.74800,12.13333,-1.8014e-004
 57.85600,12.15500,-1.7962e-004
 57.97600,12.17667,-1.7948e-004
 58.09300,12.19833,-1.7844e-004
 58.21100,12.22000,-1.7817e-004
 58.32400,12.24167,-1.7717e-004
 58.43000,12.26333,-1.7696e-004
 58.55200,12.28500,-1.7618e-004
 58.67000,12.30667,-1.7530e-004
 58.78800,12.32833,-1.7441e-004
 58.89600,12.35000,-1.7393e-004
 59.01600,12.37167,-1.7360e-004
 59.13000,12.39333,-1.7323e-004
 59.24600,12.41500,-1.7184e-004
 59.36300,12.43667,-1.7128e-004
 59.48000,12.45833,-1.7049e-004
 59.60100,12.48000,-1.6962e-004
 59.72200,12.50167,-1.6884e-004
 59.82900,12.52333,-1.6824e-004
 59.94500,12.54500,-1.6725e-004
 60.06200,12.56667,-1.6655e-004
 60.17600,12.58833,-1.6587e-004
 60.29700,12.61000,-1.6561e-004
 60.41000,12.63167,-1.6453e-004
 60.52800,12.65333,-1.6454e-004
 60.64200,12.67500,-1.6419e-004
 60.76200,12.69667,-1.6324e-004
 60.87500,12.71833,-1.6267e-004
 60.98300,12.74000,-1.6170e-004
 61.09500,12.76167,-1.6079e-004
 61.20800,12.78333,-1.5989e-004
 61.32800,12.80500,-1.5873e-004
 61.44200,12.82667,-1.5850e-004
 61.55100,12.84833,-1.5713e-004
 61.67000,12.87000,-1.5652e-004
 61.79000,12.89167,-1.5600e-004
 61.89300,12.91333,-1.5487e-004
 62.01800,12.93500,-1.5429e-004
 62.13400,12.95667,-1.5380e-004
 62.24800,12.97833,-1.5279e-004
 62.35800,13.00000,-1.5222e-004
 62.48000,13.02167,-1.5101e-004
 62.59700,13.04333,-1.5103e-004
 62.72000,13.06500,-1.4989e-004
 62.83400,13.08667,-1.4882e-004
 62.93800,13.10833,-1.4792e-004
 63.05900,13.13000,-1.4690e-004
 63.17600,13.15167,-1.4564e-004
 63.28600,13.17333,-1.4476e-004
 63.40100,13.19500,-1.4378e-004
 63.52200,13.21667,-1.4375e-004
 63.62800,13.23833,-1.4311e-004
 63.75400,13.26000,-1.4183e-004
 63.86800,13.28167,-1.4123e-004
 63.98600,13.30333,-1.4011e-004
 64.10000,13.32500,-1.3901e-004
 64.21600,13.34667,-1.3801e-004
 64.32900,13.36833,-1.3733e-004
 64.45000,13.39000,-1.3590e-004
 64.56600,13.41167,-1.3541e-004
 64.69000,13.43333,-1.3449e-004
 64.80700,13.45500,-1.3404e-004
 64.91600,13.47667,-1.3283e-004
 65.03300,13.49833,-1.3289e-004
 65.14800,13.52000,-1.3177e-004
 65.26400,13.54167,-1.3060e-004
 65.37600,13.56333,-1.2989e-004
 65.48900,13.58500,-1.2912e-004
 65.61200,13.60667,-1.2763e-004
 65.72300,13.62833,-1.2680e-004
 65.84100,13.65000,-1.2496e-004
 65.95800,13.67167,-1.2422e-004
 66.07300,13.69333,-1.2419e-004
 66.18700,13.71500,-1.2243e-004
 66.30400,13.73667,-1.2171e-004
 66.43000,13.75833,-1.2069e-004
 66.53600,13.78000,-1.1947e-004
 66.65600,13.80167,-1.1856e-004
 66.76600,13.82333,-1.1770e-004
 66.88900,13.84500,-1.1724e-004
 66.99900,13.86667,-1.1552e-004
 67.13100,13.88833,-1.1442e-004
 67.22900,13.91000,-1.1356e-004
 67.34800,13.93167,-1.1248e-004
 67.46300,13.95333,-1.1177e-004
 67.58700,13.97500,-1.1085e-004
 67.69400,13.99667,-1.1015e-004
 67.81200,14.01833,-1.0872e-004
 67.92300,14.04000,-1.0792e-004
 68.04300,14.06167,-1.0688e-004
 68.16100,14.08333,-1.0607e-004
 68.28100,14.10500,-1.0514e-004
 68.38000,14.12667,-1.0399e-004
 68.49900,14.14833,-1.0310e-004
 68.62100,14.17000,-1.0230e-004
 68.73300,14.19167,-1.0091e-004
 68.84400,14.21333,-9.9984e-005
 68.96100,14.23500,-9.8827e-005
 69.08000,14.25667,-9.8068e-005
 69.19200,14.27833,-9.7173e-005
 69.30900,14.30000,-9.5253e-005
 69.42400,14.32167,-9.5203e-005
 69.54000,14.34333,-9.4300e-005
 69.64700,14.36500,-9.3236e-005
 69.76200,14.38667,-9.2114e-005
 69.88400,14.40833,-9.1229e-005
 69.99900,14.43000,-9.0107e-005
 70.11900,14.45167,-8.9154e-005
 70.22900,14.47333,-8.8068e-005
 70.33500,14.49500,-8.7238e-005
 70.45600,14.51667,-8.6113e-005
 70.57000,14.53833,-8.5080e-005
 70.68700,14.56000,-8.3655e-005
 70.79700,14.58167,-8.2754e-005
 70.90400,14.60333,-8.1463e-005
 71.02900,14.62500,-8.0989e-005
 71.13900,14.64667,-7.9614e-005
 71.25300,14.66833,-7.8870e-005
 71.36800,14.69000,-7.7500e-005
 71.47600,14.71167,-7.6469e-005
 71.60000,14.73333,-7.5323e-005
 71.70900,14.75500,-7.4285e-005
 71.82300,14.77667,-7.3499e-005
 71.94100,14.79833,-7.2107e-005
 72.05400,14.82000,-7.1514e-005
 72.17200,14.84167,-7.0308e-005
 72.28200,14.86333,-6.8809e-005
 72.40000,14.88500,-6.7417e-005
 72.51500,14.90667,-6.6789e-005
 72.62900,14.92833,-6.5405e-005
 72.74100,14.95000,-6.4943e-005
 72.86500,14.97167,-6.3363e-005
 72.97800,14.99333,-6.2358e-005
 73.09200,15.01500,-6.1448e-005
 73.20800,15.03667,-6.0359e-005
 73.32000,15.05833,-5.8866e-005
 73.43600,15.08000,-5.8272e-005
 73.55100,15.10167,-5.6737e-005
 73.66900,15.12333,-5.5942e-005
 73.78600,15.14500,-5.4537e-005
 73.90100,15.16667,-5.3146e-005
 74.01200,15.18833,-5.2608e-005
 74.12900,15.21000,-5.1347e-005
 74.23600,15.23167,-4.9622e-005
 74.35400,15.25333,-4.9652e-005
 74.47400,15.27500,-4.7998e-005
 74.58000,15.29667,-4.7125e-005
 74.69500,15.31833,-4.5445e-005
 74.81400,15.34000,-4.4953e-005
 74.92200,15.36167,-4.3736e-005
 75.04200,15.38333,-4.2597e-005
 75.14900,15.40500,-4.1758e-005
 75.26600,15.42667,-4.0208e-005
 75.38700,15.44833,-3.9618e-005
 75.48900,15.47000,-3.8651e-005
 75.60700,15.49167,-3.7382e-005
 75.72600,15.51333,-3.6106e-005
 75.83700,15.53500,-3.4929e-005
 75.95600,15.55667,-3.3529e-005
 76.05800,15.57833,-3.3139e-005
 76.17800,15.60000,-3.1628e-005
 76.29900,15.62167,-3.0544e-005
 76.40800,15.64333,-2.9422e-005
 76.52300,15.66500,-2.7474e-005
 76.64100,15.68667,-2.7030e-005
 76.75500,15.70833,-2.5686e-005
 76.86300,15.73000,-2.4242e-005
 76.98100,15.75167,-2.2911e-005
 77.09200,15.77333,-2.1590e-005
 77.21000,15.79500,-2.0258e-005
 77.32700,15.81667,-1.9079e-005
 77.43700,15.83833,-1.8280e-005
 77.55000,15.86000,-1.7480e-005
 77.66300,15.88167,-1.6123e-005
 77.77300,15.90333,-1.4396e-005
 77.88900,15.92500,-1.3492e-005
 77.99800,15.94667,-1.1978e-005
 78.11800,15.96833,-1.1066e-005
 78.22600,15.99000,-1.0095e-005
 78.34900,16.01167,-8.6246e-006
 78.45700,16.03333,-7.8194e-006
 78.56600,16.05500,-6.9657e-006
 78.68400,16.07667,-5.9641e-006
 78.80000,16.09833,-4.3172e-006
 78.90300,16.12000,-3.3421e-006
 79.02400,16.14167,-1.8238e-006
 79.13300,16.16333,-1.0524e-006
 79.24700,16.18500, 3.9442e-007
 79.36200,16.20667, 2.1372e-006
 79.48000,16.22833, 2.6854e-006
 79.59600,16.25000, 4.0437e-006
 79.70200,16.27167, 4.8140e-006
 79.82700,16.29333, 5.8461e-006
 79.93300,16.31500, 7.1731e-006
 80.04700,16.33667, 8.9294e-006
 80.15800,16.35833, 9.8186e-006
 80.27600,16.38000, 1.1171e-005
 80.38900,16.40167, 1.2343e-005
 80.50200,16.42333, 1.3308e-005
 80.61700,16.44500, 1.4866e-005
 80.72700,16.46667, 1.5975e-005
 80.83600,16.48833, 1.6705e-005
 80.94900,16.51000, 1.7836e-005
 81.05700,16.53167, 1.8806e-005
 81.17500,16.55333, 2.0303e-005
 81.28000,16.57500, 2.1726e-005
 81.39600,16.59667, 2.2446e-005
 81.51000,16.61833, 2.4017e-005
 81.62500,16.64000, 2.5183e-005
 81.73900,16.66167, 2.6507e-005
 81.84200,16.68333, 2.7338e-005
 81.95500,16.70500, 2.8531e-005
 82.07400,16.72667, 2.9932e-005
 82.19400,16.74833, 3.1774e-005
 82.29500,16.77000, 3.2219e-005
 82.41100,16.79167, 3.3723e-005
 82.52200,16.81333, 3.4839e-005
 82.63100,16.83500, 3.5879e-005
 82.74700,16.85667, 3.7486e-005
 82.85700,16.87833, 3.8306e-005
 82.96900,16.90000, 3.9162e-005
 83.08600,16.92167, 4.0734e-005
 83.19700,16.94333, 4.1872e-005
 83.31200,16.96500, 4.3100e-005
 83.42400,16.98667, 4.4966e-005
 83.53700,17.00833, 4.5499e-005
 83.65100,17.03000, 4.7442e-005
 83.75800,17.05167, 4.8942e-005
 83.87500,17.07333, 4.9978e-005
 83.98500,17.09500, 5.1438e-005
 84.09800,17.11667, 5.2734e-005
 84.21000,17.13833, 5.3095e-005
 84.32500,17.16000, 5.4551e-005
 84.43900,17.18167, 5.5854e-005
 84.54700,17.20333, 5.7465e-005
 84.66200,17.22500, 5.8446e-005
 84.77600,17.24667, 5.9997e-005
 84.88600,17.26833, 6.1127e-005
 84.99900,17.29000, 6.2526e-005
 85.11600,17.31167, 6.3192e-005
 85.22300,17.33333, 6.4012e-005
 85.33600,17.35500, 6.5185e-005
 85.44300,17.37667, 6.6520e-005
 85.55900,17.39833, 6.8416e-005
 85.66600,17.42000, 6.9339e-005
 85.78200,17.44167, 7.0657e-005
 85.88800,17.46333, 7.1655e-005
 86.00100,17.48500, 7.2745e-005
 86.11600,17.50667, 7.4139e-005
 86.22300,17.52833, 7.5701e-005
 86.33500,17.55000, 7.7259e-005
 86.45000,17.57167, 7.8178e-005
 86.56600,17.59333, 7.9456e-005
 86.67000,17.61500, 8.0955e-005
 86.78700,17.63667, 8.2672e-005
 86.89100,17.65833, 8.3594e-005
 87.00800,17.68000, 8.5023e-005
 87.12200,17.70167, 8.5503e-005
 87.23200,17.72333, 8.7066e-005
 87.34600,17.74500, 8.8288e-005
 87.44300,17.76667, 8.9427e-005
 87.56300,17.78833, 9.1064e-005
 87.67000,17.81000, 9.1822e-005
 87.78500,17.83167, 9.3793e-005
 87.89300,17.85333, 9.4600e-005
 88.01300,17.87500, 9.6649e-005
 88.11800,17.89667, 9.7393e-005
 88.23800,17.91833, 9.8803e-005
 88.34600,17.94000, 9.9465e-005
 88.45500,17.96167, 1.0088e-004
 88.56800,17.98333, 1.0257e-004
 88.68000,18.00500, 1.0367e-004
 88.79400,18.02667, 1.0498e-004
 88.90000,18.04833, 1.0606e-004
 89.01000,18.07000, 1.0739e-004
 89.11600,18.09167, 1.0891e-004
 89.22800,18.11333, 1.1030e-004
 89.34200,18.13500, 1.1185e-004
 89.45400,18.15667, 1.1279e-004
 89.56900,18.17833, 1.1450e-004
 89.68200,18.20000, 1.1623e-004
 89.78700,18.22167, 1.1691e-004
 89.90200,18.24333, 1.1783e-004
 90.01100,18.26500, 1.1885e-004
 90.12000,18.28667, 1.2047e-004
 90.22400,18.30833, 1.2162e-004
 90.34400,18.33000, 1.2245e-004
 90.44900,18.35167, 1.2387e-004
 90.56000,18.37333, 1.2489e-004
 90.67200,18.39500, 1.2632e-004
 90.78200,18.41667, 1.2787e-004
 90.89400,18.43833, 1.2897e-004
 91.00100,18.46000, 1.2967e-004
 91.11400,18.48167, 1.3175e-004
 91.22400,18.50333, 1.3292e-004
 91.33700,18.52500, 1.3459e-004
 91.44500,18.54667, 1.3565e-004
 91.55300,18.56833, 1.3775e-004
 91.66700,18.59000, 1.3873e-004
 91.77600,18.61167, 1.3934e-004
 91.88300,18.63333, 1.4121e-004
 91.99200,18.65500, 1.4285e-004
 92.10500,18.67667, 1.4408e-004
 92.21800,18.69833, 1.4470e-004
 92.32700,18.72000, 1.4609e-004
 92.44600,18.74167, 1.4748e-004
 92.55300,18.76333, 1.4927e-004
 92.66600,18.78500, 1.5075e-004
 92.77200,18.80667, 1.5210e-004
 92.88200,18.82833, 1.5344e-004
 92.99400,18.85000, 1.5508e-004
 93.09900,18.87167, 1.5642e-004
 93.20800,18.89333, 1.5751e-004
 93.32200,18.91500, 1.5875e-004
 93.43300,18.93667, 1.6018e-004
 93.54200,18.95833, 1.6064e-004
 93.65900,18.98000, 1.6244e-004
 93.77100,19.00167, 1.6371e-004
 93.88000,19.02333, 1.6527e-004
 93.99000,19.04500, 1.6663e-004
 94.09500,19.06667, 1.6737e-004
 94.20800,19.08833, 1.6873e-004
 94.30700,19.11000, 1.6970e-004
 94.42400,19.13167, 1.7140e-004
 94.53200,19.15333, 1.7219e-004
 94.64400,19.17500, 1.7402e-004
 94.75200,19.19667, 1.7596e-004
 94.86500,19.21833, 1.7651e-004
 94.97700,19.24000, 1.7818e-004
 95.09000,19.26167, 1.7925e-004
 95.19300,19.28333, 1.8086e-004
 95.30200,19.30500, 1.8217e-004
 95.41100,19.32667, 1.8338e-004
 95.53400,19.34833, 1.8473e-004
 95.63800,19.37000, 1.8642e-004
 95.75300,19.39167, 1.8798e-004
 95.86300,19.41333, 1.8897e-004
 95.96500,19.43500, 1.8983e-004
 96.08300,19.45667, 1.9197e-004
 96.18900,19.47833, 1.9277e-004
 96.29700,19.50000, 1.9384e-004
 96.40900,19.52167, 1.9546e-004
 96.51500,19.54333, 1.9704e-004
 96.62000,19.56500, 1.9812e-004
 96.73400,19.58667, 1.9955e-004
 96.84800,19.60833, 2.0143e-004
 96.96300,19.63000, 2.0231e-004
 97.06100,19.65167, 2.0432e-004
 97.17400,19.67333, 2.0560e-004
 97.28200,19.69500, 2.0682e-004
 97.38900,19.71667, 2.0837e-004
 97.49500,19.73833, 2.0930e-004
 97.60700,19.76000, 2.1082e-004
 97.71600,19.78167, 2.1158e-004
 97.82500,19.80333, 2.1287e-004
 97.93800,19.82500, 2.1458e-004
 98.04200,19.84667, 2.1567e-004
 98.15400,19.86833, 2.1731e-004
 98.25800,19.89000, 2.1844e-004
 98.37100,19.91167, 2.2031e-004
 98.48400,19.93333, 2.2099e-004
 98.58600,19.95500, 2.2240e-004
 98.70600,19.97667, 2.2373e-004
 98.80200,19.99833, 2.2488e-004
 98.91200,20.02000, 2.2643e-004
 99.01900,20.04167, 2.2764e-004
 99.13100,20.06333, 2.2937e-004
 99.23300,20.08500, 2.3054e-004
 99.34900,20.10667, 2.3166e-004
 99.45600,20.12833, 2.3287e-004
 99.56600,20.15000, 2.3438e-004
 99.67300,20.17167, 2.3641e-004
 99.78600,20.19333, 2.3734e-004
 99.89400,20.21500, 2.3854e-004
 99.99400,20.23667, 2.3995e-004
100.113,20.25833, 2.4107e-004
100.214,20.28000, 2.4210e-004
100.319,20.30167, 2.4323e-004
100.431,20.32333, 2.4434e-004
100.541,20.34500, 2.4607e-004
100.645,20.36667, 2.4774e-004
100.753,20.38833, 2.4888e-004
100.857,20.41000, 2.5001e-004
100.965,20.43167, 2.5147e-004
101.077,20.45333, 2.5273e-004
101.19,20.47500, 2.5468e-004
101.293,20.49667, 2.5601e-004
101.403,20.51833, 2.5750e-004
101.501,20.54000, 2.5844e-004
101.615,20.56167, 2.5981e-004
101.723,20.58333, 2.6185e-004
101.834,20.60500, 2.6260e-004
101.936,20.62667, 2.6401e-004
102.05,20.64833, 2.6540e-004
102.161,20.67000, 2.6666e-004
102.265,20.69167, 2.6843e-004
102.375,20.71333, 2.6973e-004
102.486,20.73500, 2.7097e-004
102.587,20.75667, 2.7196e-004
102.704,20.77833, 2.7333e-004
102.807,20.80000, 2.7478e-004
102.911,20.82167, 2.7608e-004
103.026,20.84333, 2.7737e-004
103.132,20.86500, 2.7854e-004
103.245,20.88667, 2.7994e-004
103.347,20.90833, 2.8163e-004
103.452,20.93000, 2.8240e-004
103.57,20.95167, 2.8411e-004
103.67,20.97333, 2.8537e-004
103.78,20.99500, 2.8682e-004
103.88,21.01667, 2.8761e-004
103.992,21.03833, 2.8933e-004
104.1,21.06000, 2.9103e-004
104.209,21.08167, 2.9251e-004
104.316,21.10333, 2.9397e-004
104.427,21.12500, 2.9503e-004
104.545,21.14667, 2.9581e-004
104.643,21.16833, 2.9685e-004
104.747,21.19000, 2.9833e-004
104.86,21.21167, 3.0019e-004
104.973,21.23333, 3.0174e-004
105.081,21.25500, 3.0234e-004
105.185,21.27667, 3.0395e-004
105.302,21.29833, 3.0563e-004
105.398,21.32000, 3.0695e-004
105.507,21.34167, 3.0873e-004
105.613,21.36333, 3.0961e-004
105.718,21.38500, 3.1077e-004
105.826,21.40667, 3.1210e-004
105.931,21.42833, 3.1365e-004
106.038,21.45000, 3.1519e-004
106.143,21.47167, 3.1656e-004
106.244,21.49333, 3.1816e-004
106.351,21.51500, 3.1913e-004
106.454,21.53667, 3.2027e-004
106.565,21.55833, 3.2189e-004
106.667,21.58000, 3.2270e-004
106.78,21.60167, 3.2449e-004
106.887,21.62333, 3.2554e-004
106.996,21.64500, 3.2663e-004
107.101,21.66667, 3.2787e-004
107.212,21.68833, 3.2963e-004
107.317,21.71000, 3.3095e-004
107.419,21.73167, 3.3176e-004
107.531,21.75333, 3.3332e-004
107.638,21.77500, 3.3526e-004
107.744,21.79667, 3.3583e-004
107.853,21.81833, 3.3788e-004
107.958,21.84000, 3.3894e-004
108.064,21.86167, 3.4046e-004
108.173,21.88333, 3.4212e-004
108.278,21.90500, 3.4392e-004
108.385,21.92667, 3.4447e-004
108.496,21.94833, 3.4617e-004
108.604,21.97000, 3.4750e-004
108.704,21.99167, 3.4860e-004
108.812,22.01333, 3.4960e-004
108.926,22.03500, 3.5134e-004
109.029,22.05667, 3.5279e-004
109.132,22.07833, 3.5381e-004
109.247,22.10000, 3.5597e-004
109.35,22.12167, 3.5701e-004
109.461,22.14333, 3.5853e-004
109.572,22.16500, 3.6031e-004
109.676,22.18667, 3.6183e-004
109.781,22.20833, 3.6351e-004
109.887,22.23000, 3.6406e-004
109.994,22.25167, 3.6533e-004
110.105,22.27333, 3.6714e-004
110.21,22.29500, 3.6846e-004
110.315,22.31667, 3.6933e-004
110.429,22.33833, 3.7126e-004
110.529,22.36000, 3.7224e-004
110.642,22.38167, 3.7414e-004
110.738,22.40333, 3.7515e-004
110.848,22.42500, 3.7696e-004
110.948,22.44667, 3.7741e-004
111.057,22.46833, 3.7907e-004
111.163,22.49000, 3.8057e-004
111.265,22.51167, 3.8175e-004
111.375,22.53333, 3.8288e-004
111.484,22.55500, 3.8434e-004
111.597,22.57667, 3.8580e-004
111.703,22.59833, 3.8728e-004
111.816,22.62000, 3.8844e-004
111.92,22.64167, 3.9019e-004
112.018,22.66333, 3.9111e-004
112.133,22.68500, 3.9305e-004
112.236,22.70667, 3.9467e-004
112.334,22.72833, 3.9594e-004
112.447,22.75000, 3.9668e-004
112.557,22.77167, 3.9735e-004
112.662,22.79333, 3.9956e-004
112.772,22.81500, 4.0063e-004
112.874,22.83667, 4.0212e-004
112.982,22.85833, 4.0318e-004
113.085,22.88000, 4.0482e-004
113.188,22.90167, 4.0660e-004
113.306,22.92333, 4.0815e-004
113.404,22.94500, 4.0981e-004
113.514,22.96667, 4.1103e-004
113.618,22.98833, 4.1163e-004
113.723,23.01000, 4.1293e-004
113.83,23.03167, 4.1423e-004
113.942,23.05333, 4.1594e-004
114.048,23.07500, 4.1708e-004
114.154,23.09667, 4.1895e-004
114.256,23.11833, 4.2032e-004
114.367,23.14000, 4.2169e-004
114.471,23.16167, 4.2278e-004
114.577,23.18333, 4.2485e-004
114.687,23.20500, 4.2591e-004
114.791,23.22667, 4.2725e-004
114.896,23.24833, 4.2849e-004
115.004,23.27000, 4.3029e-004
115.107,23.29167, 4.3138e-004
115.21,23.31333, 4.3295e-004
115.319,23.33500, 4.3379e-004
115.428,23.35667, 4.3511e-004
115.534,23.37833, 4.3665e-004
115.641,23.40000, 4.3832e-004
115.749,23.42167, 4.3936e-004
115.849,23.44333, 4.4089e-004
115.962,23.46500, 4.4224e-004
116.065,23.48667, 4.4353e-004
116.171,23.50833, 4.4443e-004
116.275,23.53000, 4.4601e-004
116.387,23.55167, 4.4737e-004
116.486,23.57333, 4.4863e-004
116.594,23.59500, 4.4988e-004
116.7,23.61667, 4.5117e-004
116.803,23.63833, 4.5211e-004
116.9,23.66000, 4.5391e-004
117.014,23.68167, 4.5510e-004
117.111,23.70333, 4.5682e-004
117.223,23.72500, 4.5801e-004
117.333,23.74667, 4.5910e-004
117.434,23.76833, 4.6048e-004
117.537,23.79000, 4.6217e-004
117.644,23.81167, 4.6349e-004
117.748,23.83333, 4.6460e-004
117.862,23.85500, 4.6622e-004
117.962,23.87667, 4.6759e-004
118.065,23.89833, 4.6892e-004
118.178,23.92000, 4.7047e-004
118.284,23.94167, 4.7187e-004
118.385,23.96333, 4.7290e-004
118.488,23.98500, 4.7450e-004
118.601,24.00667, 4.7547e-004
118.706,24.02833, 4.7750e-004
118.816,24.05000, 4.7894e-004
118.922,24.07167, 4.8011e-004
119.025,24.09333, 4.8025e-004
119.125,24.11500, 4.8185e-004
119.225,24.13667, 4.8371e-004
119.336,24.15833, 4.8442e-004
119.447,24.18000, 4.8598e-004
119.554,24.20167, 4.8773e-004
119.658,24.22333, 4.8856e-004
119.758,24.24500, 4.9061e-004
119.866,24.26667, 4.9155e-004
119.964,24.28833, 4.9309e-004
120.069,24.31000, 4.9440e-004
120.18,24.33167, 4.9626e-004
120.282,24.35333, 4.9746e-004
120.38,24.37500, 4.9872e-004
120.49,24.39667, 4.9957e-004
120.6,24.41833, 5.0116e-004
120.706,24.44000, 5.0202e-004
120.813,24.46167, 5.0391e-004
120.919,24.48333, 5.0545e-004
121.021,24.50500, 5.0670e-004
121.129,24.52667, 5.0846e-004
121.236,24.54833, 5.1034e-004
121.337,24.57000, 5.1040e-004
121.441,24.59167, 5.1167e-004
121.542,24.61333, 5.1330e-004
121.658,24.63500, 5.1448e-004
121.761,24.65667, 5.1635e-004
121.862,24.67833, 5.1769e-004
121.967,24.70000, 5.1918e-004
122.074,24.72167, 5.2085e-004
122.178,24.74333, 5.2211e-004
122.285,24.76500, 5.2382e-004
122.394,24.78667, 5.2481e-004
122.498,24.80833, 5.2582e-004
122.603,24.83000, 5.2756e-004
122.709,24.85167, 5.2916e-004
122.812,24.87333, 5.3021e-004
122.91,24.89500, 5.3103e-004
123.023,24.91667, 5.3221e-004
123.124,24.93833, 5.3421e-004
123.231,24.96000, 5.3561e-004
123.329,24.98167, 5.3635e-004
123.432,25.00333, 5.3777e-004
123.538,25.02500, 5.3889e-004
123.655,25.04667, 5.4097e-004
123.749,25.06833, 5.4131e-004
123.859,25.09000, 5.4325e-004
123.96,25.11167, 5.4405e-004
124.063,25.13333, 5.4553e-004
124.163,25.15500, 5.4659e-004
124.271,25.17667, 5.4893e-004
124.371,25.19833, 5.5010e-004
124.481,25.22000, 5.5167e-004
124.581,25.24167, 5.5267e-004
124.689,25.26333, 5.5326e-004
124.792,25.28500, 5.5480e-004