File: data/16.6mm-091419/ExpDat_sapph16.6mm0914x19.csv
#EXPORTTYPE:           ,DATA ALL
#FILE:                 ,sapph17mm0914x19.ngb-cle
#FORMAT:               ,NETZSCH5
#FTYPE:                ,ANSI
#IDENTITY:             ,sapph 17
#DECIMAL:              ,POINT
#SEPARATOR:            ,COMMA
#MTYPE:                ,DIL
#INSTRUMENT:           ,NETZSCH DIL 402C
#PROJECT:              ,feldspar
#DATE/TIME:            ,9/14/2019 9:51:19 AM (UTC-5)
#CORR. FILE:           ,
#TEMPCAL:              ,TCALZERO.TMX
#LABORATORY:           ,Mineral Physics
#OPERATOR:             ,PAG
#REMARK:               ,bare, norm start, for bytown and rocks , long stnd, close to thermocouple
#SAMPLE:               ,sapphirre rod
#SAMPLE LENGTH /mm:    ,16.592
#MATERIAL:             ,sapphire stnd
#MEASMODE:             ,Standard Expansion
#PURGE GAS 1:          ,ARGON
#FLOW RATE 1 /(ml/min):,75
#M.RANGE /µm:          ,500
#CORR. CODE:           ,010
#RANGE:                ,20.0°C/3.0(K/min)/1240.0°C
#SEGMENT:              ,S1/1
#SEG. 1:               ,20.0°C/3.0(K/min)/1240.0°C

##Temp./°C,Time/min,dL/Lo
  21.97100,  0.00000,1.8338e-005
  21.98600,  0.23833,2.1534e-005
  21.97700,  0.47667,2.4144e-005
  21.98800,  0.71500,2.6483e-005
  21.99200,  0.95333,2.7784e-005
  21.99000,  1.19167,2.8915e-005
  21.99500,  1.43000,2.9501e-005
  22.01000,  1.66833,3.0233e-005
  22.01500,  1.90667,3.0457e-005
  22.01100,  2.14500,3.0790e-005
  22.01700,  2.38333,3.0833e-005
  22.02700,  2.62167,3.0536e-005
  22.03000,  2.86000,3.0534e-005
  22.04100,  3.09833,3.0470e-005
  22.04900,  3.33667,3.0241e-005
  22.06000,  3.57500,2.9732e-005
  22.12600,  3.81333,2.8651e-005
  22.22200,  4.05167,2.7424e-005
  22.38900,  4.29000,2.5280e-005
  22.63400,  4.52833,2.3181e-005
  22.99200,  4.76667,2.0874e-005
  23.42800,  5.00500,1.8349e-005
  23.95500,  5.24333,1.5684e-005
  24.58600,  5.48167,1.3901e-005
  25.31300,  5.72000,1.2369e-005
  26.11900,  5.95833,1.1437e-005
  26.99000,  6.19667,1.1146e-005
  27.93100,  6.43500,1.1940e-005
  28.94500,  6.67333,1.4008e-005
  29.98700,  6.91167,1.6899e-005
  31.07000,  7.15000,2.1241e-005
  32.15700,  7.38833,2.6347e-005
  33.26700,  7.62667,3.2414e-005
  34.39600,  7.86500,3.9465e-005
  35.52200,  8.10333,4.6838e-005
  36.66300,  8.34167,5.5286e-005
  37.78600,  8.58000,6.3986e-005
  38.93500,  8.81833,7.3109e-005
  40.07400,  9.05667,8.2503e-005
  41.21700,  9.29500,9.2660e-005
  42.36300,  9.53333,1.0277e-004
  43.52500,  9.77167,1.1341e-004
  44.69500, 10.01000,1.2429e-004
  45.88600, 10.24833,1.3522e-004
  47.08600, 10.48667,1.4658e-004
  48.26800, 10.72500,1.5782e-004
  49.47300, 10.96333,1.6934e-004
  50.69600, 11.20167,1.8124e-004
  51.93500, 11.44000,1.9372e-004
  53.16800, 11.67833,2.0635e-004
  54.41000, 11.91667,2.1844e-004
  55.64700, 12.15500,2.3098e-004
  56.90100, 12.39333,2.4450e-004
  58.16100, 12.63167,2.5817e-004
  59.42900, 12.87000,2.7197e-004
  60.70400, 13.10833,2.8608e-004
  61.96100, 13.34667,3.0065e-004
  63.22300, 13.58500,3.1510e-004
  64.50100, 13.82333,3.3002e-004
  65.76000, 14.06167,3.4547e-004
  67.04700, 14.30000,3.6134e-004
  68.32300, 14.53833,3.7686e-004
  69.58500, 14.77667,3.9255e-004
  70.85200, 15.01500,4.0780e-004
  72.10500, 15.25333,4.2382e-004
  73.37400, 15.49167,4.3974e-004
  74.61900, 15.73000,4.5540e-004
  75.86700, 15.96833,4.7144e-004
  77.12300, 16.20667,4.8753e-004
  78.37400, 16.44500,5.0375e-004
  79.62700, 16.68333,5.2002e-004
  80.88000, 16.92167,5.3626e-004
  82.13000, 17.16000,5.5269e-004
  83.35800, 17.39833,5.6887e-004
  84.59300, 17.63667,5.8545e-004
  85.82900, 17.87500,6.0188e-004
  87.05600, 18.11333,6.1826e-004
  88.29800, 18.35167,6.3524e-004
  89.52300, 18.59000,6.5170e-004
  90.74300, 18.82833,6.6815e-004
  91.96500, 19.06667,6.8473e-004
  93.18600, 19.30500,7.0176e-004
  94.40400, 19.54333,7.1837e-004
  95.61100, 19.78167,7.3489e-004
  96.83100, 20.02000,7.5171e-004
  98.02800, 20.25833,7.6825e-004
  99.24800, 20.49667,7.8495e-004
 100.445, 20.73500,8.0125e-004
 101.646, 20.97333,8.1798e-004
 102.843, 21.21167,8.3438e-004
 104.039, 21.45000,8.5109e-004
 105.222, 21.68833,8.6746e-004
 106.402, 21.92667,8.8389e-004
 107.586, 22.16500,9.0080e-004
 108.779, 22.40333,9.1724e-004
 109.964, 22.64167,9.3360e-004
 111.142, 22.88000,9.5052e-004
 112.318, 23.11833,9.6710e-004
 113.499, 23.35667,9.8406e-004
 114.663, 23.59500,1.0006e-003
 115.843, 23.83333,1.0169e-003
 117.016, 24.07167,1.0336e-003
 118.183, 24.31000,1.0505e-003
 119.341, 24.54833,1.0667e-003
 120.493, 24.78667,1.0834e-003
 121.653, 25.02500,1.0999e-003
 122.82, 25.26333,1.1169e-003
 123.986, 25.50167,1.1331e-003
 125.15, 25.74000,1.1497e-003
 126.307, 25.97833,1.1658e-003
 127.461, 26.21667,1.1825e-003
 128.615, 26.45500,1.1990e-003
 129.759, 26.69333,1.2152e-003
 130.917, 26.93167,1.2316e-003
 132.066, 27.17000,1.2481e-003
 133.206, 27.40833,1.2645e-003
 134.353, 27.64667,1.2815e-003
 135.499, 27.88500,1.2976e-003
 136.643, 28.12333,1.3136e-003
 137.772, 28.36167,1.3303e-003
 138.911, 28.60000,1.3463e-003
 140.045, 28.83833,1.3626e-003
 141.191, 29.07667,1.3789e-003
 142.315, 29.31500,1.3952e-003
 143.443, 29.55333,1.4110e-003
 144.562, 29.79167,1.4269e-003
 145.698, 30.03000,1.4431e-003
 146.839, 30.26833,1.4590e-003
 147.954, 30.50667,1.4751e-003
 149.08, 30.74500,1.4914e-003
 150.204, 30.98333,1.5075e-003
 151.329, 31.22167,1.5237e-003
 152.449, 31.46000,1.5393e-003
 153.57, 31.69833,1.5556e-003
 154.678, 31.93667,1.5712e-003
 155.793, 32.17500,1.5874e-003
 156.903, 32.41333,1.6030e-003
 158.01, 32.65167,1.6190e-003
 159.12, 32.89000,1.6350e-003
 160.226, 33.12833,1.6510e-003
 161.326, 33.36667,1.6666e-003
 162.433, 33.60500,1.6827e-003
 163.538, 33.84333,1.6985e-003
 164.656, 34.08167,1.7147e-003
 165.751, 34.32000,1.7304e-003
 166.852, 34.55833,1.7460e-003
 167.945, 34.79667,1.7619e-003
 169.038, 35.03500,1.7777e-003
 170.13, 35.27333,1.7929e-003
 171.217, 35.51167,1.8086e-003
 172.316, 35.75000,1.8247e-003
 173.407, 35.98833,1.8409e-003
 174.497, 36.22667,1.8563e-003
 175.592, 36.46500,1.8723e-003
 176.672, 36.70333,1.8875e-003
 177.756, 36.94167,1.9034e-003
 178.844, 37.18000,1.9193e-003
 179.922, 37.41833,1.9346e-003
 180.994, 37.65667,1.9504e-003
 182.076, 37.89500,1.9659e-003
 183.154, 38.13333,1.9815e-003
 184.235, 38.37167,1.9972e-003
 185.315, 38.61000,2.0129e-003
 186.384, 38.84833,2.0286e-003
 187.452, 39.08667,2.0438e-003
 188.516, 39.32500,2.0591e-003
 189.572, 39.56333,2.0743e-003
 190.642, 39.80167,2.0896e-003
 191.706, 40.04000,2.1047e-003
 192.771, 40.27833,2.1204e-003
 193.834, 40.51667,2.1355e-003
 194.91, 40.75500,2.1514e-003
 195.978, 40.99333,2.1668e-003
 197.031, 41.23167,2.1819e-003
 198.099, 41.47000,2.1974e-003
 199.154, 41.70833,2.2125e-003
 200.211, 41.94667,2.2277e-003
 201.259, 42.18500,2.2433e-003
 202.315, 42.42333,2.2584e-003
 203.357, 42.66167,2.2734e-003
 204.414, 42.90000,2.2887e-003
 205.463, 43.13833,2.3044e-003
 206.512, 43.37667,2.3194e-003
 207.556, 43.61500,2.3344e-003
 208.594, 43.85333,2.3495e-003
 209.64, 44.09167,2.3641e-003
 210.676, 44.33000,2.3796e-003
 211.713, 44.56833,2.3948e-003
 212.761, 44.80667,2.4104e-003
 213.793, 45.04500,2.4250e-003
 214.824, 45.28333,2.4398e-003
 215.862, 45.52167,2.4550e-003
 216.899, 45.76000,2.4702e-003
 217.915, 45.99833,2.4844e-003
 218.937, 46.23667,2.4996e-003
 219.971, 46.47500,2.5146e-003
 220.992, 46.71333,2.5289e-003
 222.017, 46.95167,2.5440e-003
 223.038, 47.19000,2.5588e-003
 224.061, 47.42833,2.5733e-003
 225.084, 47.66667,2.5881e-003
 226.107, 47.90500,2.6026e-003
 227.143, 48.14333,2.6175e-003
 228.143, 48.38167,2.6323e-003
 229.164, 48.62000,2.6466e-003
 230.183, 48.85833,2.6621e-003
 231.2, 49.09667,2.6766e-003
 232.218, 49.33500,2.6911e-003
 233.225, 49.57333,2.7055e-003
 234.234, 49.81167,2.7207e-003
 235.247, 50.05000,2.7353e-003
 236.245, 50.28833,2.7503e-003
 237.256, 50.52667,2.7649e-003
 238.259, 50.76500,2.7793e-003
 239.26, 51.00333,2.7942e-003
 240.262, 51.24167,2.8090e-003
 241.258, 51.48000,2.8235e-003
 242.253, 51.71833,2.8377e-003
 243.251, 51.95667,2.8529e-003
 244.249, 52.19500,2.8674e-003
 245.237, 52.43333,2.8819e-003
 246.232, 52.67167,2.8962e-003
 247.229, 52.91000,2.9107e-003
 248.224, 53.14833,2.9249e-003
 249.207, 53.38667,2.9400e-003
 250.196, 53.62500,2.9542e-003
 251.193, 53.86333,2.9686e-003
 252.169, 54.10167,2.9830e-003
 253.143, 54.34000,2.9974e-003
 254.127, 54.57833,3.0119e-003
 255.119, 54.81667,3.0266e-003
 256.099, 55.05500,3.0410e-003
 257.073, 55.29333,3.0555e-003
 258.054, 55.53167,3.0699e-003
 259.033, 55.77000,3.0837e-003
 259.995, 56.00833,3.0979e-003
 260.973, 56.24667,3.1119e-003
 261.951, 56.48500,3.1261e-003
 262.92, 56.72333,3.1404e-003
 263.892, 56.96167,3.1543e-003
 264.862, 57.20000,3.1682e-003
 265.827, 57.43833,3.1822e-003
 266.807, 57.67667,3.1970e-003
 267.778, 57.91500,3.2111e-003
 268.74, 58.15333,3.2246e-003
 269.699, 58.39167,3.2389e-003
 270.657, 58.63000,3.2527e-003
 271.622, 58.86833,3.2670e-003
 272.581, 59.10667,3.2809e-003
 273.538, 59.34500,3.2947e-003
 274.494, 59.58333,3.3095e-003
 275.442, 59.82167,3.3233e-003
 276.392, 60.06000,3.3372e-003
 277.346, 60.29833,3.3512e-003
 278.294, 60.53667,3.3643e-003
 279.239, 60.77500,3.3782e-003
 280.184, 61.01333,3.3917e-003
 281.127, 61.25167,3.4058e-003
 282.081, 61.49000,3.4189e-003
 283.03, 61.72833,3.4327e-003
 283.97, 61.96667,3.4468e-003
 284.914, 62.20500,3.4606e-003
 285.851, 62.44333,3.4740e-003
 286.79, 62.68167,3.4875e-003
 287.734, 62.92000,3.5014e-003
 288.675, 63.15833,3.5153e-003
 289.615, 63.39667,3.5293e-003
 290.548, 63.63500,3.5431e-003
 291.486, 63.87333,3.5565e-003
 292.414, 64.11167,3.5694e-003
 293.344, 64.35000,3.5831e-003
 294.271, 64.58833,3.5967e-003
 295.193, 64.82667,3.6105e-003
 296.126, 65.06500,3.6240e-003
 297.058, 65.30333,3.6375e-003
 297.975, 65.54167,3.6508e-003
 298.893, 65.78000,3.6648e-003
 299.822, 66.01833,3.6780e-003
 300.737, 66.25667,3.6918e-003
 301.667, 66.49500,3.7048e-003
 302.584, 66.73333,3.7185e-003
 303.507, 66.97167,3.7320e-003
 304.424, 67.21000,3.7457e-003
 305.339, 67.44833,3.7590e-003
 306.25, 67.68667,3.7721e-003
 307.168, 67.92500,3.7854e-003
 308.077, 68.16333,3.7981e-003
 308.987, 68.40167,3.8116e-003
 309.895, 68.64000,3.8250e-003
 310.812, 68.87833,3.8390e-003
 311.724, 69.11667,3.8516e-003
 312.632, 69.35500,3.8642e-003
 313.541, 69.59333,3.8775e-003
 314.45, 69.83167,3.8908e-003
 315.356, 70.07000,3.9042e-003
 316.261, 70.30833,3.9170e-003
 317.155, 70.54667,3.9299e-003
 318.06, 70.78500,3.9433e-003
 318.957, 71.02333,3.9563e-003
 319.857, 71.26167,3.9698e-003
 320.75, 71.50000,3.9825e-003
 321.654, 71.73833,3.9953e-003
 322.556, 71.97667,4.0084e-003
 323.452, 72.21500,4.0215e-003
 324.341, 72.45333,4.0346e-003
 325.23, 72.69167,4.0479e-003
 326.121, 72.93000,4.0611e-003
 327.012, 73.16833,4.0730e-003
 327.895, 73.40667,4.0862e-003
 328.79, 73.64500,4.0991e-003
 329.68, 73.88333,4.1122e-003
 330.57, 74.12167,4.1254e-003
 331.448, 74.36000,4.1386e-003
 332.339, 74.59833,4.1515e-003
 333.218, 74.83667,4.1637e-003
 334.104, 75.07500,4.1767e-003
 334.984, 75.31333,4.1897e-003
 335.867, 75.55167,4.2026e-003
 336.737, 75.79000,4.2155e-003
 337.631, 76.02833,4.2276e-003
 338.506, 76.26667,4.2405e-003
 339.387, 76.50500,4.2534e-003
 340.253, 76.74333,4.2653e-003
 341.125, 76.98167,4.2786e-003
 341.998, 77.22000,4.2913e-003
 342.873, 77.45833,4.3038e-003
 343.74, 77.69667,4.3160e-003
 344.613, 77.93500,4.3290e-003
 345.486, 78.17333,4.3423e-003
 346.362, 78.41167,4.3544e-003
 347.225, 78.65000,4.3674e-003
 348.087, 78.88833,4.3801e-003
 348.951, 79.12667,4.3928e-003
 349.818, 79.36500,4.4049e-003
 350.69, 79.60333,4.4184e-003
 351.559, 79.84167,4.4310e-003
 352.42, 80.08000,4.4437e-003
 353.278, 80.31833,4.4567e-003
 354.137, 80.55667,4.4697e-003
 354.99, 80.79500,4.4821e-003
 355.844, 81.03333,4.4954e-003
 356.698, 81.27167,4.5084e-003
 357.539, 81.51000,4.5217e-003
 358.38, 81.74833,4.5335e-003
 359.222, 81.98667,4.5465e-003
 360.055, 82.22500,4.5595e-003
 360.903, 82.46333,4.5720e-003
 361.74, 82.70167,4.5846e-003
 362.588, 82.94000,4.5969e-003
 363.425, 83.17833,4.6087e-003
 364.281, 83.41667,4.6205e-003
 365.138, 83.65500,4.6332e-003
 365.993, 83.89333,4.6448e-003
 366.856, 84.13167,4.6572e-003
 367.722, 84.37000,4.6695e-003
 368.601, 84.60833,4.6811e-003
 369.469, 84.84667,4.6933e-003
 370.349, 85.08500,4.7059e-003
 371.23, 85.32333,4.7178e-003
 372.115, 85.56167,4.7306e-003
 372.999, 85.80000,4.7431e-003
 373.881, 86.03833,4.7555e-003
 374.762, 86.27667,4.7679e-003
 375.646, 86.51500,4.7806e-003
 376.523, 86.75333,4.7937e-003
 377.391, 86.99167,4.8064e-003
 378.262, 87.23000,4.8186e-003
 379.139, 87.46833,4.8308e-003
 380.007, 87.70667,4.8437e-003
 380.867, 87.94500,4.8566e-003
 381.722, 88.18333,4.8696e-003
 382.576, 88.42167,4.8819e-003
 383.427, 88.66000,4.8937e-003
 384.282, 88.89833,4.9065e-003
 385.133, 89.13667,4.9185e-003
 385.984, 89.37500,4.9309e-003
 386.829, 89.61333,4.9438e-003
 387.677, 89.85167,4.9559e-003
 388.514, 90.09000,4.9681e-003
 389.36, 90.32833,4.9804e-003
 390.199, 90.56667,4.9933e-003
 391.027, 90.80500,5.0041e-003
 391.869, 91.04333,5.0166e-003
 392.703, 91.28167,5.0294e-003
 393.531, 91.52000,5.0409e-003
 394.366, 91.75833,5.0539e-003
 395.19, 91.99667,5.0655e-003
 396.013, 92.23500,5.0781e-003
 396.832, 92.47333,5.0902e-003
 397.651, 92.71167,5.1022e-003
 398.468, 92.95000,5.1139e-003
 399.287, 93.18833,5.1254e-003
 400.106, 93.42667,5.1378e-003
 400.927, 93.66500,5.1509e-003
 401.741, 93.90333,5.1624e-003
 402.553, 94.14167,5.1742e-003
 403.369, 94.38000,5.1852e-003
 404.175, 94.61833,5.1973e-003
 404.979, 94.85667,5.2092e-003
 405.786, 95.09500,5.2207e-003
 406.599, 95.33333,5.2338e-003
 407.404, 95.57167,5.2452e-003
 408.198, 95.81000,5.2573e-003
 408.997, 96.04833,5.2681e-003
 409.801, 96.28667,5.2806e-003
 410.6, 96.52500,5.2916e-003
 411.404, 96.76333,5.3034e-003
 412.208, 97.00167,5.3147e-003
 413.005, 97.24000,5.3273e-003
 413.806, 97.47833,5.3387e-003
 414.597, 97.71667,5.3515e-003
 415.401, 97.95500,5.3623e-003
 416.191, 98.19333,5.3742e-003
 416.987, 98.43167,5.3852e-003
 417.768, 98.67000,5.3972e-003
 418.561, 98.90833,5.4093e-003
 419.348, 99.14667,5.4206e-003
 420.139, 99.38500,5.4323e-003
 420.931, 99.62333,5.4442e-003
 421.715, 99.86167,5.4548e-003
 422.498,100.1,5.4666e-003
 423.283,100.338,5.4777e-003
 424.072,100.577,5.4888e-003
 424.859,100.815,5.5013e-003
 425.655,101.053,5.5123e-003
 426.448,101.292,5.5250e-003
 427.23,101.53,5.5361e-003
 428.021,101.768,5.5478e-003
 428.797,102.007,5.5586e-003
 429.576,102.245,5.5704e-003
 430.356,102.483,5.5813e-003
 431.14,102.722,5.5934e-003
 431.916,102.96,5.6046e-003
 432.696,103.198,5.6167e-003
 433.473,103.437,5.6277e-003
 434.247,103.675,5.6387e-003
 435.023,103.913,5.6499e-003
 435.805,104.152,5.6611e-003
 436.584,104.39,5.6722e-003
 437.362,104.628,5.6840e-003
 438.137,104.867,5.6948e-003
 438.921,105.105,5.7066e-003
 439.697,105.343,5.7177e-003
 440.461,105.582,5.7295e-003
 441.244,105.82,5.7403e-003
 442.018,106.058,5.7524e-003
 442.793,106.297,5.7636e-003
 443.564,106.535,5.7754e-003
 444.341,106.773,5.7863e-003
 445.111,107.012,5.7984e-003
 445.882,107.25,5.8088e-003
 446.642,107.488,5.8205e-003
 447.419,107.727,5.8315e-003
 448.19,107.965,5.8433e-003
 448.959,108.203,5.8542e-003
 449.723,108.442,5.8660e-003
 450.49,108.68,5.8769e-003
 451.259,108.918,5.8889e-003
 452.027,109.157,5.8997e-003
 452.794,109.395,5.9113e-003
 453.562,109.633,5.9223e-003
 454.324,109.872,5.9340e-003
 455.088,110.11,5.9449e-003
 455.855,110.348,5.9569e-003
 456.613,110.587,5.9679e-003
 457.373,110.825,5.9795e-003
 458.129,111.063,5.9897e-003
 458.896,111.302,6.0018e-003
 459.651,111.54,6.0126e-003
 460.415,111.778,6.0237e-003
 461.174,112.017,6.0343e-003
 461.925,112.255,6.0465e-003
 462.681,112.493,6.0575e-003
 463.442,112.732,6.0678e-003
 464.197,112.97,6.0794e-003
 464.958,113.208,6.0906e-003
 465.719,113.447,6.1025e-003
 466.469,113.685,6.1131e-003
 467.225,113.923,6.1250e-003
 467.975,114.162,6.1353e-003
 468.72,114.4,6.1466e-003
 469.472,114.638,6.1570e-003
 470.237,114.877,6.1691e-003
 470.987,115.115,6.1798e-003
 471.743,115.353,6.1902e-003
 472.492,115.592,6.2022e-003
 473.242,115.83,6.2130e-003
 473.992,116.068,6.2249e-003
 474.738,116.307,6.2358e-003
 475.487,116.545,6.2474e-003
 476.236,116.783,6.2581e-003
 476.973,117.022,6.2698e-003
 477.727,117.26,6.2806e-003
 478.47,117.498,6.2925e-003
 479.216,117.737,6.3033e-003
 479.961,117.975,6.3146e-003
 480.704,118.213,6.3244e-003
 481.45,118.452,6.3347e-003
 482.194,118.69,6.3465e-003
 482.947,118.928,6.3570e-003
 483.69,119.167,6.3683e-003
 484.429,119.405,6.3790e-003
 485.17,119.643,6.3908e-003
 485.907,119.882,6.4014e-003
 486.642,120.12,6.4131e-003
 487.381,120.358,6.4236e-003
 488.122,120.597,6.4338e-003
 488.86,120.835,6.4452e-003
 489.607,121.073,6.4555e-003
 490.34,121.312,6.4674e-003
 491.084,121.55,6.4779e-003
 491.82,121.788,6.4898e-003
 492.559,122.027,6.5004e-003
 493.298,122.265,6.5108e-003
 494.034,122.503,6.5229e-003
 494.767,122.742,6.5333e-003
 495.502,122.98,6.5451e-003
 496.235,123.218,6.5557e-003
 496.97,123.457,6.5659e-003
 497.7,123.695,6.5779e-003
 498.424,123.933,6.5883e-003
 499.154,124.172,6.6000e-003
 499.885,124.41,6.6108e-003
 500.618,124.648,6.6215e-003
 501.355,124.887,6.6319e-003
 502.08,125.125,6.6423e-003
 502.808,125.363,6.6541e-003
 503.543,125.602,6.6643e-003
 504.257,125.84,6.6744e-003
 504.987,126.078,6.6861e-003
 505.717,126.317,6.6966e-003
 506.443,126.555,6.7085e-003
 507.164,126.793,6.7190e-003
 507.898,127.032,6.7290e-003
 508.617,127.27,6.7404e-003
 509.338,127.508,6.7511e-003
 510.061,127.747,6.7616e-003
 510.779,127.985,6.7732e-003
 511.498,128.223,6.7838e-003
 512.202,128.462,6.7942e-003
 512.914,128.7,6.8062e-003
 513.615,128.938,6.8166e-003
 514.317,129.177,6.8281e-003
 515.018,129.415,6.8383e-003
 515.727,129.653,6.8487e-003
 516.434,129.892,6.8604e-003
 517.15,130.13,6.8704e-003
 517.867,130.368,6.8809e-003
 518.582,130.607,6.8922e-003
 519.309,130.845,6.9018e-003
 520.037,131.083,6.9126e-003
 520.769,131.322,6.9226e-003
 521.515,131.56,6.9328e-003
 522.254,131.798,6.9443e-003
 523.001,132.037,6.9543e-003
 523.748,132.275,6.9647e-003
 524.496,132.513,6.9764e-003
 525.241,132.752,6.9869e-003
 525.98,132.99,6.9970e-003
 526.724,133.228,7.0086e-003
 527.466,133.467,7.0193e-003
 528.193,133.705,7.0311e-003
 528.932,133.943,7.0416e-003
 529.667,134.182,7.0519e-003
 530.407,134.42,7.0634e-003
 531.138,134.658,7.0736e-003
 531.87,134.897,7.0856e-003
 532.591,135.135,7.0960e-003
 533.329,135.373,7.1062e-003
 534.045,135.612,7.1172e-003
 534.771,135.85,7.1279e-003
 535.495,136.088,7.1397e-003
 536.215,136.327,7.1499e-003
 536.941,136.565,7.1598e-003
 537.662,136.803,7.1715e-003
 538.377,137.042,7.1821e-003
 539.096,137.28,7.1938e-003
 539.817,137.518,7.2039e-003
 540.523,137.757,7.2141e-003
 541.236,137.995,7.2255e-003
 541.944,138.233,7.2356e-003
 542.654,138.472,7.2455e-003
 543.368,138.71,7.2568e-003
 544.076,138.948,7.2671e-003
 544.782,139.187,7.2773e-003
 545.489,139.425,7.2888e-003
 546.198,139.663,7.2990e-003
 546.906,139.902,7.3100e-003
 547.604,140.14,7.3198e-003
 548.311,140.378,7.3310e-003
 549.012,140.617,7.3415e-003
 549.713,140.855,7.3513e-003
 550.416,141.093,7.3613e-003
 551.118,141.332,7.3732e-003
 551.826,141.57,7.3831e-003
 552.526,141.808,7.3945e-003
 553.23,142.047,7.4048e-003
 553.93,142.285,7.4142e-003
 554.619,142.523,7.4255e-003
 555.32,142.762,7.4356e-003
 556.009,143,7.4456e-003
 556.713,143.238,7.4570e-003
 557.41,143.477,7.4669e-003
 558.105,143.715,7.4767e-003
 558.792,143.953,7.4881e-003
 559.477,144.192,7.4982e-003
 560.173,144.43,7.5079e-003
 560.875,144.668,7.5191e-003
 561.565,144.907,7.5291e-003
 562.256,145.145,7.5407e-003
 562.95,145.383,7.5506e-003
 563.647,145.622,7.5600e-003
 564.343,145.86,7.5701e-003
 565.035,146.098,7.5817e-003
 565.728,146.337,7.5917e-003
 566.422,146.575,7.6013e-003
 567.11,146.813,7.6128e-003
 567.805,147.052,7.6227e-003
 568.495,147.29,7.6325e-003
 569.186,147.528,7.6440e-003
 569.865,147.767,7.6541e-003
 570.557,148.005,7.6636e-003
 571.246,148.243,7.6749e-003
 571.937,148.482,7.6847e-003
 572.621,148.72,7.6945e-003
 573.299,148.958,7.7061e-003
 573.99,149.197,7.7158e-003
 574.677,149.435,7.7254e-003
 575.366,149.673,7.7350e-003
 576.049,149.912,7.7464e-003
 576.732,150.15,7.7563e-003
 577.421,150.388,7.7662e-003
 578.113,150.627,7.7756e-003
 578.805,150.865,7.7872e-003
 579.492,151.103,7.7973e-003
 580.176,151.342,7.8072e-003
 580.875,151.58,7.8188e-003
 581.564,151.818,7.8289e-003
 582.255,152.057,7.8386e-003
 582.934,152.295,7.8498e-003
 583.616,152.533,7.8599e-003
 584.296,152.772,7.8702e-003
 584.963,153.01,7.8820e-003
 585.643,153.248,7.8924e-003
 586.306,153.487,7.9017e-003
 586.973,153.725,7.9117e-003
 587.642,153.963,7.9239e-003
 588.309,154.202,7.9338e-003
 588.97,154.44,7.9436e-003
 589.648,154.678,7.9536e-003
 590.312,154.917,7.9647e-003
 590.979,155.155,7.9747e-003
 591.651,155.393,7.9845e-003
 592.32,155.632,7.9962e-003
 593.003,155.87,8.0059e-003
 593.68,156.108,8.0154e-003
 594.363,156.347,8.0261e-003
 595.051,156.585,8.0358e-003
 595.745,156.823,8.0458e-003
 596.446,157.062,8.0569e-003
 597.14,157.3,8.0664e-003
 597.849,157.538,8.0760e-003
 598.563,157.777,8.0873e-003
 599.275,158.015,8.0970e-003
 599.993,158.253,8.1072e-003
 600.698,158.492,8.1170e-003
 601.43,158.73,8.1288e-003
 602.146,158.968,8.1386e-003
 602.861,159.207,8.1485e-003
 603.574,159.445,8.1604e-003
 604.285,159.683,8.1704e-003
 604.999,159.922,8.1804e-003
 605.702,160.16,8.1922e-003
 606.418,160.398,8.2020e-003
 607.121,160.637,8.2122e-003
 607.82,160.875,8.2223e-003
 608.522,161.113,8.2341e-003
 609.202,161.352,8.2440e-003
 609.903,161.59,8.2539e-003
 610.598,161.828,8.2651e-003
 611.286,162.067,8.2753e-003
 611.981,162.305,8.2852e-003
 612.674,162.543,8.2965e-003
 613.357,162.782,8.3063e-003
 614.048,163.02,8.3161e-003
 614.73,163.258,8.3259e-003
 615.412,163.497,8.3372e-003
 616.085,163.735,8.3470e-003
 616.77,163.973,8.3564e-003
 617.446,164.212,8.3678e-003
 618.115,164.45,8.3774e-003
 618.796,164.688,8.3872e-003
 619.475,164.927,8.3972e-003
 620.143,165.165,8.4082e-003
 620.819,165.403,8.4177e-003
 621.489,165.642,8.4272e-003
 622.162,165.88,8.4373e-003
 622.831,166.118,8.4484e-003
 623.504,166.357,8.4583e-003
 624.178,166.595,8.4678e-003
 624.848,166.833,8.4790e-003
 625.521,167.072,8.4884e-003
 626.182,167.31,8.4981e-003
 626.85,167.548,8.5080e-003
 627.511,167.787,8.5185e-003
 628.177,168.025,8.5280e-003
 628.84,168.263,8.5378e-003
 629.501,168.502,8.5475e-003
 630.165,168.74,8.5591e-003
 630.828,168.978,8.5688e-003
 631.495,169.217,8.5783e-003
 632.149,169.455,8.5873e-003
 632.812,169.693,8.5969e-003
 633.475,169.932,8.6080e-003
 634.142,170.17,8.6177e-003
 634.804,170.408,8.6275e-003
 635.471,170.647,8.6386e-003
 636.133,170.885,8.6478e-003
 636.789,171.123,8.6574e-003
 637.445,171.362,8.6670e-003
 638.102,171.6,8.6783e-003
 638.755,171.838,8.6881e-003
 639.407,172.077,8.6976e-003
 640.062,172.315,8.7067e-003
 640.717,172.553,8.7161e-003
 641.369,172.792,8.7279e-003
 642.018,173.03,8.7373e-003
 642.673,173.268,8.7469e-003
 643.328,173.507,8.7566e-003
 643.975,173.745,8.7669e-003
 644.632,173.983,8.7763e-003
 645.29,174.222,8.7857e-003
 645.94,174.46,8.7971e-003
 646.596,174.698,8.8067e-003
 647.247,174.937,8.8160e-003
 647.9,175.175,8.8266e-003
 648.555,175.413,8.8358e-003
 649.212,175.652,8.8453e-003
 649.869,175.89,8.8547e-003
 650.52,176.128,8.8662e-003
 651.178,176.367,8.8759e-003
 651.828,176.605,8.8854e-003
 652.48,176.843,8.8942e-003
 653.128,177.082,8.9053e-003
 653.78,177.32,8.9148e-003
 654.431,177.558,8.9244e-003
 655.084,177.797,8.9338e-003
 655.733,178.035,8.9455e-003
 656.377,178.273,8.9550e-003
 657.036,178.512,8.9642e-003
 657.681,178.75,8.9732e-003
 658.331,178.988,8.9844e-003
 658.984,179.227,8.9937e-003
 659.631,179.465,9.0034e-003
 660.279,179.703,9.0146e-003
 660.929,179.942,9.0241e-003
 661.575,180.18,9.0334e-003
 662.225,180.418,9.0426e-003
 662.866,180.657,9.0536e-003
 663.503,180.895,9.0633e-003
 664.149,181.133,9.0729e-003
 664.782,181.372,9.0829e-003
 665.426,181.61,9.0943e-003
 666.059,181.848,9.1034e-003
 666.689,182.087,9.1128e-003
 667.321,182.325,9.1222e-003
 667.947,182.563,9.1336e-003
 668.574,182.802,9.1431e-003
 669.204,183.04,9.1525e-003
 669.834,183.278,9.1630e-003
 670.459,183.517,9.1718e-003
 671.099,183.755,9.1810e-003
 671.736,183.993,9.1901e-003
 672.372,184.232,9.2010e-003
 673.024,184.47,9.2102e-003
 673.678,184.708,9.2193e-003
 674.331,184.947,9.2282e-003
 674.987,185.185,9.2386e-003
 675.638,185.423,9.2482e-003
 676.297,185.662,9.2574e-003
 676.958,185.9,9.2687e-003
 677.62,186.138,9.2783e-003
 678.275,186.377,9.2879e-003
 678.933,186.615,9.2984e-003
 679.589,186.853,9.3078e-003
 680.245,187.092,9.3173e-003
 680.897,187.33,9.3268e-003
 681.551,187.568,9.3379e-003
 682.202,187.807,9.3476e-003
 682.847,188.045,9.3571e-003
 683.501,188.283,9.3660e-003
 684.144,188.522,9.3768e-003
 684.792,188.76,9.3866e-003
 685.436,188.998,9.3960e-003
 686.082,189.237,9.4069e-003
 686.724,189.475,9.4163e-003
 687.368,189.713,9.4256e-003
 688.005,189.952,9.4348e-003
 688.641,190.19,9.4453e-003
 689.278,190.428,9.4549e-003
 689.912,190.667,9.4641e-003
 690.547,190.905,9.4752e-003
 691.18,191.143,9.4846e-003
 691.805,191.382,9.4938e-003
 692.445,191.62,9.5031e-003
 693.081,191.858,9.5122e-003
 693.711,192.097,9.5232e-003
 694.35,192.335,9.5328e-003
 694.982,192.573,9.5420e-003
 695.613,192.812,9.5513e-003
 696.241,193.05,9.5626e-003
 696.88,193.288,9.5721e-003
 697.509,193.527,9.5811e-003
 698.149,193.765,9.5899e-003
 698.772,194.003,9.6010e-003
 699.405,194.242,9.6102e-003
 700.031,194.48,9.6195e-003
 700.655,194.718,9.6287e-003
 701.285,194.957,9.6397e-003
 701.925,195.195,9.6490e-003
 702.551,195.433,9.6583e-003
 703.184,195.672,9.6671e-003
 703.806,195.91,9.6778e-003
 704.433,196.148,9.6872e-003
 705.065,196.387,9.6963e-003
 705.684,196.625,9.7058e-003
 706.312,196.863,9.7171e-003
 706.929,197.102,9.7262e-003
 707.563,197.34,9.7355e-003
 708.187,197.578,9.7443e-003
 708.829,197.817,9.7549e-003
 709.448,198.055,9.7641e-003
 710.078,198.293,9.7735e-003
 710.702,198.532,9.7827e-003
 711.333,198.77,9.7938e-003
 711.959,199.008,9.8032e-003
 712.584,199.247,9.8123e-003
 713.207,199.485,9.8209e-003
 713.825,199.723,9.8316e-003
 714.445,199.962,9.8406e-003
 715.071,200.2,9.8499e-003
 715.689,200.438,9.8605e-003
 716.316,200.677,9.8702e-003
 716.929,200.915,9.8792e-003
 717.565,201.153,9.8879e-003
 718.189,201.392,9.8982e-003
 718.812,201.63,9.9072e-003
 719.439,201.868,9.9164e-003
 720.066,202.107,9.9258e-003
 720.689,202.345,9.9367e-003
 721.326,202.583,9.9458e-003
 721.945,202.822,9.9549e-003
 722.569,203.06,9.9639e-003
 723.199,203.298,9.9730e-003
 723.825,203.537,9.9841e-003
 724.463,203.775,9.9935e-003
 725.088,204.013,1.0003e-002
 725.714,204.252,1.0012e-002
 726.337,204.49,1.0021e-002
 726.964,204.728,1.0032e-002
 727.585,204.967,1.0042e-002
 728.213,205.205,1.0051e-002
 728.843,205.443,1.0060e-002
 729.46,205.682,1.0071e-002
 730.076,205.92,1.0080e-002
 730.7,206.158,1.0089e-002
 731.324,206.397,1.0099e-002
 731.953,206.635,1.0109e-002
 732.586,206.873,1.0119e-002
 733.208,207.112,1.0128e-002
 733.825,207.35,1.0136e-002
 734.452,207.588,1.0146e-002
 735.081,207.827,1.0157e-002
 735.708,208.065,1.0166e-002
 736.333,208.303,1.0176e-002
 736.944,208.542,1.0185e-002
 737.559,208.78,1.0195e-002
 738.18,209.018,1.0207e-002
 738.792,209.257,1.0216e-002
 739.402,209.495,1.0226e-002
 740.004,209.733,1.0235e-002
 740.602,209.972,1.0245e-002
 741.199,210.21,1.0254e-002
 741.807,210.448,1.0263e-002
 742.419,210.687,1.0273e-002
 743.027,210.925,1.0282e-002
 743.646,211.163,1.0292e-002
 744.271,211.402,1.0301e-002
 744.892,211.64,1.0310e-002
 745.522,211.878,1.0319e-002
 746.153,212.117,1.0329e-002
 746.79,212.355,1.0339e-002
 747.42,212.593,1.0348e-002
 748.057,212.832,1.0357e-002
 748.698,213.07,1.0368e-002
 749.327,213.308,1.0378e-002
 749.966,213.547,1.0387e-002
 750.611,213.785,1.0396e-002
 751.242,214.023,1.0405e-002
 751.878,214.262,1.0416e-002
 752.511,214.5,1.0426e-002
 753.143,214.738,1.0435e-002
 753.774,214.977,1.0444e-002
 754.395,215.215,1.0455e-002
 755.033,215.453,1.0465e-002
 755.661,215.692,1.0474e-002
 756.292,215.93,1.0483e-002
 756.923,216.168,1.0494e-002
 757.548,216.407,1.0503e-002
 758.174,216.645,1.0512e-002
 758.805,216.883,1.0522e-002
 759.416,217.122,1.0531e-002
 760.046,217.36,1.0540e-002
 760.673,217.598,1.0552e-002
 761.299,217.837,1.0561e-002
 761.924,218.075,1.0571e-002
 762.541,218.313,1.0579e-002
 763.157,218.552,1.0588e-002
 763.782,218.79,1.0599e-002
 764.409,219.028,1.0609e-002
 765.03,219.267,1.0618e-002
 765.647,219.505,1.0627e-002
 766.264,219.743,1.0636e-002
 766.877,219.982,1.0648e-002
 767.494,220.22,1.0657e-002
 768.112,220.458,1.0666e-002
 768.726,220.697,1.0675e-002
 769.337,220.935,1.0684e-002
 769.949,221.173,1.0695e-002
 770.552,221.412,1.0704e-002
 771.151,221.65,1.0712e-002
 771.759,221.888,1.0722e-002
 772.362,222.127,1.0733e-002
 772.959,222.365,1.0742e-002
 773.568,222.603,1.0751e-002
 774.165,222.842,1.0760e-002
 774.774,223.08,1.0768e-002
 775.367,223.318,1.0777e-002
 775.962,223.557,1.0788e-002
 776.55,223.795,1.0797e-002
 777.138,224.033,1.0806e-002
 777.73,224.272,1.0815e-002
 778.318,224.51,1.0826e-002
 778.922,224.748,1.0835e-002
 779.506,224.987,1.0843e-002
 780.101,225.225,1.0852e-002
 780.694,225.463,1.0861e-002
 781.277,225.702,1.0871e-002
 781.876,225.94,1.0880e-002
 782.468,226.178,1.0889e-002
 783.061,226.417,1.0898e-002
 783.649,226.655,1.0907e-002
 784.236,226.893,1.0916e-002
 784.823,227.132,1.0928e-002
 785.406,227.37,1.0936e-002
 786.001,227.608,1.0945e-002
 786.588,227.847,1.0954e-002
 787.179,228.085,1.0963e-002
 787.769,228.323,1.0973e-002
 788.354,228.562,1.0982e-002
 788.931,228.8,1.0991e-002
 789.508,229.038,1.1000e-002
 790.089,229.277,1.1009e-002
 790.668,229.515,1.1020e-002
 791.246,229.753,1.1029e-002
 791.829,229.992,1.1037e-002
 792.422,230.23,1.1045e-002
 793.013,230.468,1.1055e-002
 793.612,230.707,1.1064e-002
 794.214,230.945,1.1072e-002
 794.809,231.183,1.1081e-002
 795.407,231.422,1.1090e-002
 796.012,231.66,1.1102e-002
 796.604,231.898,1.1111e-002
 797.194,232.137,1.1120e-002
 797.785,232.375,1.1128e-002
 798.37,232.613,1.1137e-002
 798.963,232.852,1.1148e-002
 799.541,233.09,1.1156e-002
 800.13,233.328,1.1166e-002
 800.707,233.567,1.1174e-002
 801.281,233.805,1.1184e-002
 801.867,234.043,1.1195e-002
 802.435,234.282,1.1204e-002
 803.011,234.52,1.1213e-002
 803.586,234.758,1.1222e-002
 804.159,234.997,1.1230e-002
 804.738,235.235,1.1240e-002
 805.319,235.473,1.1249e-002
 805.904,235.712,1.1257e-002
 806.491,235.95,1.1266e-002
 807.077,236.188,1.1275e-002
 807.668,236.427,1.1286e-002
 808.255,236.665,1.1294e-002
 808.85,236.903,1.1303e-002
 809.438,237.142,1.1311e-002
 810.018,237.38,1.1320e-002
 810.613,237.618,1.1331e-002
 811.201,237.857,1.1340e-002
 811.791,238.095,1.1349e-002
 812.379,238.333,1.1357e-002
 812.96,238.572,1.1366e-002
 813.542,238.81,1.1375e-002
 814.131,239.048,1.1384e-002
 814.708,239.287,1.1393e-002
 815.288,239.525,1.1404e-002
 815.862,239.763,1.1413e-002
 816.44,240.002,1.1422e-002
 817.015,240.24,1.1430e-002
 817.604,240.478,1.1438e-002
 818.199,240.717,1.1447e-002
 818.806,240.955,1.1455e-002
 819.422,241.193,1.1467e-002
 820.051,241.432,1.1475e-002
 820.682,241.67,1.1485e-002
 821.316,241.908,1.1494e-002
 821.954,242.147,1.1503e-002
 822.588,242.385,1.1513e-002
 823.213,242.623,1.1524e-002
 823.83,242.862,1.1534e-002
 824.444,243.1,1.1543e-002
 825.057,243.338,1.1552e-002
 825.652,243.577,1.1561e-002
 826.263,243.815,1.1572e-002
 826.867,244.053,1.1581e-002
 827.473,244.292,1.1590e-002
 828.083,244.53,1.1599e-002
 828.69,244.768,1.1608e-002
 829.293,245.007,1.1618e-002
 829.903,245.245,1.1627e-002
 830.513,245.483,1.1638e-002
 831.124,245.722,1.1647e-002
 831.729,245.96,1.1657e-002
 832.346,246.198,1.1666e-002
 832.965,246.437,1.1675e-002
 833.582,246.675,1.1684e-002
 834.195,246.913,1.1695e-002
 834.806,247.152,1.1704e-002
 835.42,247.39,1.1713e-002
 836.027,247.628,1.1722e-002
 836.639,247.867,1.1731e-002
 837.252,248.105,1.1741e-002
 837.863,248.343,1.1750e-002
 838.476,248.582,1.1762e-002
 839.093,248.82,1.1771e-002
 839.71,249.058,1.1780e-002
 840.329,249.297,1.1790e-002
 840.941,249.535,1.1798e-002
 841.556,249.773,1.1807e-002
 842.178,250.012,1.1816e-002
 842.795,250.25,1.1825e-002
 843.406,250.488,1.1837e-002
 844.021,250.727,1.1846e-002
 844.631,250.965,1.1856e-002
 845.245,251.203,1.1865e-002
 845.857,251.442,1.1875e-002
 846.472,251.68,1.1884e-002
 847.078,251.918,1.1894e-002
 847.684,252.157,1.1906e-002
 848.285,252.395,1.1916e-002
 848.892,252.633,1.1925e-002
 849.499,252.872,1.1934e-002
 850.103,253.11,1.1942e-002
 850.713,253.348,1.1951e-002
 851.335,253.587,1.1960e-002
 851.956,253.825,1.1970e-002
 852.582,254.063,1.1982e-002
 853.211,254.302,1.1991e-002
 853.835,254.54,1.2000e-002
 854.469,254.778,1.2009e-002
 855.102,255.017,1.2019e-002
 855.73,255.255,1.2028e-002
 856.363,255.493,1.2038e-002
 857,255.732,1.2050e-002
 857.64,255.97,1.2059e-002
 858.275,256.208,1.2069e-002
 858.911,256.447,1.2078e-002
 859.547,256.685,1.2086e-002
 860.179,256.923,1.2095e-002
 860.81,257.162,1.2104e-002
 861.446,257.4,1.2117e-002
 862.076,257.638,1.2126e-002
 862.707,257.877,1.2136e-002
 863.334,258.115,1.2145e-002
 863.966,258.353,1.2155e-002
 864.6,258.592,1.2164e-002
 865.232,258.83,1.2176e-002
 865.86,259.068,1.2186e-002
 866.505,259.307,1.2195e-002
 867.136,259.545,1.2205e-002
 867.767,259.783,1.2215e-002
 868.398,260.022,1.2223e-002
 869.03,260.26,1.2232e-002
 869.662,260.498,1.2244e-002
 870.294,260.737,1.2254e-002
 870.931,260.975,1.2263e-002
 871.546,261.213,1.2273e-002
 872.167,261.452,1.2282e-002
 872.804,261.69,1.2292e-002
 873.423,261.928,1.2301e-002
 874.051,262.167,1.2311e-002
 874.67,262.405,1.2323e-002
 875.288,262.643,1.2332e-002
 875.904,262.882,1.2342e-002
 876.528,263.12,1.2351e-002
 877.146,263.358,1.2360e-002
 877.763,263.597,1.2370e-002
 878.381,263.835,1.2378e-002
 879.002,264.073,1.2387e-002
 879.62,264.312,1.2399e-002
 880.237,264.55,1.2408e-002
 880.858,264.788,1.2418e-002
 881.467,265.027,1.2427e-002
 882.079,265.265,1.2437e-002
 882.697,265.503,1.2447e-002
 883.315,265.742,1.2456e-002
 883.92,265.98,1.2468e-002
 884.531,266.218,1.2478e-002
 885.139,266.457,1.2487e-002
 885.74,266.695,1.2496e-002
 886.35,266.933,1.2505e-002
 886.952,267.172,1.2514e-002
 887.555,267.41,1.2523e-002
 888.118,267.648,1.2535e-002
 888.648,267.887,1.2544e-002
 889.142,268.125,1.2553e-002
 889.627,268.363,1.2562e-002
 890.105,268.602,1.2570e-002
 890.607,268.84,1.2578e-002
 891.139,269.078,1.2586e-002
 891.708,269.317,1.2595e-002
 892.312,269.555,1.2605e-002
 892.94,269.793,1.2614e-002
 893.573,270.032,1.2623e-002
 894.164,270.27,1.2634e-002
 894.726,270.508,1.2643e-002
 895.276,270.747,1.2652e-002
 895.839,270.985,1.2660e-002
 896.423,271.223,1.2671e-002
 897.03,271.462,1.2679e-002
 897.661,271.7,1.2688e-002
 898.308,271.938,1.2698e-002
 898.943,272.177,1.2708e-002
 899.586,272.415,1.2718e-002
 900.211,272.653,1.2730e-002
 900.826,272.892,1.2740e-002
 901.423,273.13,1.2750e-002
 902.014,273.368,1.2760e-002
 902.598,273.607,1.2769e-002
 903.173,273.845,1.2778e-002
 903.754,274.083,1.2789e-002
 904.325,274.322,1.2798e-002
 904.908,274.56,1.2807e-002
 905.48,274.798,1.2816e-002
 906.063,275.037,1.2825e-002
 906.646,275.275,1.2834e-002
 907.239,275.513,1.2845e-002
 907.825,275.752,1.2854e-002
 908.406,275.99,1.2863e-002
 908.994,276.228,1.2872e-002
 909.555,276.467,1.2881e-002
 910.121,276.705,1.2889e-002
 910.701,276.943,1.2897e-002
 911.272,277.182,1.2908e-002
 911.846,277.42,1.2917e-002
 912.427,277.658,1.2926e-002
 913.004,277.897,1.2934e-002
 913.582,278.135,1.2943e-002
 914.158,278.373,1.2952e-002
 914.723,278.612,1.2964e-002
 915.285,278.85,1.2972e-002
 915.835,279.088,1.2981e-002
 916.377,279.327,1.2990e-002
 916.896,279.565,1.2999e-002
 917.394,279.803,1.3007e-002
 917.874,280.042,1.3019e-002
 918.329,280.28,1.3026e-002
 918.758,280.518,1.3034e-002
 919.169,280.757,1.3041e-002
 919.589,280.995,1.3048e-002
 920.028,281.233,1.3054e-002
 920.495,281.472,1.3060e-002
 921.006,281.71,1.3067e-002
 921.55,281.948,1.3074e-002
 922.115,282.187,1.3085e-002
 922.704,282.425,1.3093e-002
 923.306,282.663,1.3102e-002
 923.921,282.902,1.3110e-002
 924.533,283.14,1.3119e-002
 925.145,283.378,1.3128e-002
 925.766,283.617,1.3137e-002
 926.4,283.855,1.3148e-002
 927.026,284.093,1.3157e-002
 927.646,284.332,1.3167e-002
 928.264,284.57,1.3177e-002
 928.884,284.808,1.3186e-002
 929.489,285.047,1.3196e-002
 930.088,285.285,1.3208e-002
 930.677,285.523,1.3217e-002
 931.278,285.762,1.3227e-002
 931.883,286,1.3236e-002
 932.49,286.238,1.3244e-002
 933.102,286.477,1.3253e-002
 933.714,286.715,1.3262e-002
 934.315,286.953,1.3274e-002
 934.9,287.192,1.3283e-002
 935.504,287.43,1.3292e-002
 936.101,287.668,1.3301e-002
 936.702,287.907,1.3311e-002
 937.31,288.145,1.3320e-002
 937.913,288.383,1.3332e-002
 938.517,288.622,1.3341e-002
 939.131,288.86,1.3350e-002
 939.745,289.098,1.3359e-002
 940.363,289.337,1.3368e-002
 940.992,289.575,1.3376e-002
 941.632,289.813,1.3387e-002
 942.277,290.052,1.3397e-002
 942.922,290.29,1.3406e-002
 943.564,290.528,1.3416e-002
 944.196,290.767,1.3426e-002
 944.83,291.005,1.3438e-002
 945.458,291.243,1.3447e-002
 946.09,291.482,1.3457e-002
 946.72,291.72,1.3466e-002
 947.35,291.958,1.3476e-002
 947.977,292.197,1.3487e-002
 948.597,292.435,1.3496e-002
 949.22,292.673,1.3505e-002
 949.844,292.912,1.3514e-002
 950.474,293.15,1.3523e-002
 951.106,293.388,1.3533e-002
 951.743,293.627,1.3545e-002
 952.371,293.865,1.3554e-002
 953.007,294.103,1.3564e-002
 953.65,294.342,1.3573e-002
 954.279,294.58,1.3583e-002
 954.923,294.818,1.3593e-002
 955.563,295.057,1.3605e-002
 956.205,295.295,1.3615e-002
 956.841,295.533,1.3624e-002
 957.483,295.772,1.3634e-002
 958.118,296.01,1.3644e-002
 958.764,296.248,1.3653e-002
 959.393,296.487,1.3666e-002
 960.021,296.725,1.3676e-002
 960.65,296.963,1.3686e-002
 961.265,297.202,1.3695e-002
 961.89,297.44,1.3704e-002
 962.513,297.678,1.3713e-002
 963.136,297.917,1.3724e-002
 963.775,298.155,1.3733e-002
 964.431,298.393,1.3743e-002
 965.08,298.632,1.3753e-002
 965.74,298.87,1.3762e-002
 966.396,299.108,1.3772e-002
 967.053,299.347,1.3785e-002
 967.703,299.585,1.3795e-002
 968.354,299.823,1.3805e-002
 969.001,300.062,1.3815e-002
 969.638,300.3,1.3825e-002
 970.27,300.538,1.3837e-002
 970.896,300.777,1.3847e-002
 971.507,301.015,1.3857e-002
 972.13,301.253,1.3866e-002
 972.761,301.492,1.3876e-002
 973.407,301.73,1.3888e-002
 974.055,301.968,1.3897e-002
 974.687,302.207,1.3906e-002
 975.329,302.445,1.3916e-002
 975.976,302.683,1.3925e-002
 976.644,302.922,1.3935e-002
 977.341,303.16,1.3948e-002
 978.056,303.398,1.3958e-002
 978.77,303.637,1.3969e-002
 979.472,303.875,1.3980e-002
 980.168,304.113,1.3991e-002
 980.844,304.352,1.4002e-002
 981.5,304.59,1.4015e-002
 982.138,304.828,1.4026e-002
 982.765,305.067,1.4036e-002
 983.364,305.305,1.4046e-002
 983.965,305.543,1.4058e-002
 984.553,305.782,1.4066e-002
 985.142,306.02,1.4075e-002
 985.739,306.258,1.4084e-002
 986.345,306.497,1.4093e-002
 986.969,306.735,1.4103e-002
 987.602,306.973,1.4114e-002
 988.238,307.212,1.4124e-002
 988.865,307.45,1.4133e-002
 989.494,307.688,1.4143e-002
 990.134,307.927,1.4153e-002
 990.776,308.165,1.4164e-002
 991.437,308.403,1.4174e-002
 992.11,308.642,1.4184e-002
 992.781,308.88,1.4194e-002
 993.454,309.118,1.4204e-002
 994.119,309.357,1.4214e-002
 994.794,309.595,1.4226e-002
 995.455,309.833,1.4236e-002
 996.115,310.072,1.4246e-002
 996.779,310.31,1.4256e-002
 997.436,310.548,1.4267e-002
 998.077,310.787,1.4279e-002
 998.714,311.025,1.4289e-002
 999.354,311.263,1.4299e-002
1000.01,311.502,1.4309e-002
1000.67,311.74,1.4318e-002
1001.34,311.978,1.4331e-002
1001.99,312.217,1.4341e-002
1002.66,312.455,1.4351e-002
1003.34,312.693,1.4361e-002
1003.99,312.932,1.4371e-002
1004.64,313.17,1.4382e-002
1005.29,313.408,1.4394e-002
1005.92,313.647,1.4404e-002
1006.55,313.885,1.4414e-002
1007.19,314.123,1.4423e-002
1007.83,314.362,1.4432e-002
1008.47,314.6,1.4442e-002
1009.12,314.838,1.4454e-002
1009.78,315.077,1.4464e-002
1010.43,315.315,1.4473e-002
1011.08,315.553,1.4483e-002
1011.73,315.792,1.4494e-002
1012.38,316.03,1.4506e-002
1013.02,316.268,1.4516e-002
1013.66,316.507,1.4526e-002
1014.3,316.745,1.4536e-002
1014.93,316.983,1.4545e-002
1015.58,317.222,1.4556e-002
1016.21,317.46,1.4566e-002
1016.86,317.698,1.4575e-002
1017.49,317.937,1.4585e-002
1018.13,318.175,1.4595e-002
1018.77,318.413,1.4605e-002
1019.39,318.652,1.4617e-002
1019.99,318.89,1.4626e-002
1020.59,319.128,1.4636e-002
1021.15,319.367,1.4646e-002
1021.7,319.605,1.4657e-002
1022.27,319.843,1.4666e-002
1022.84,320.082,1.4675e-002
1023.43,320.32,1.4684e-002
1024.03,320.558,1.4692e-002
1024.63,320.797,1.4704e-002
1025.26,321.035,1.4714e-002
1025.9,321.273,1.4723e-002
1026.54,321.512,1.4733e-002
1027.16,321.75,1.4742e-002
1027.8,321.988,1.4752e-002
1028.45,322.227,1.4763e-002
1029.13,322.465,1.4773e-002
1029.81,322.703,1.4783e-002
1030.49,322.942,1.4793e-002
1031.17,323.18,1.4804e-002
1031.84,323.418,1.4817e-002
1032.5,323.657,1.4827e-002
1033.16,323.895,1.4838e-002
1033.81,324.133,1.4847e-002
1034.47,324.372,1.4859e-002
1035.11,324.61,1.4869e-002
1035.77,324.848,1.4878e-002
1036.44,325.087,1.4888e-002
1037.1,325.325,1.4898e-002
1037.76,325.563,1.4911e-002
1038.43,325.802,1.4921e-002
1039.11,326.04,1.4931e-002
1039.16,326.062,1.4932e-002