File: data/14.1mm-102218/ExpDat_sapph14.1mm1022218.csv
#EXPORTTYPE:           ,DATA ALL
#FILE:                 ,sapph14mm1022218.ngb-cle
#FORMAT:               ,NETZSCH5
#FTYPE:                ,ANSI
#IDENTITY:             ,saph 14
#DECIMAL:              ,POINT
#SEPARATOR:            ,COMMA
#MTYPE:                ,DIL
#INSTRUMENT:           ,NETZSCH DIL 402C
#PROJECT:              ,morb
#DATE/TIME:            ,10/22/2018 9:54:27 AM (UTC-5)
#CORR. FILE:           ,
#TEMPCAL:              ,TCALZERO.TMX
#LABORATORY:           ,min phys
#OPERATOR:             ,amh
#REMARK:               ,bare, norm start, try again
#SAMPLE:               ,sapphire stnd
#SAMPLE LENGTH /mm:    ,14.059
#MATERIAL:             ,sapphire stnd
#MEASMODE:             ,Standard Expansion
#PURGE GAS 1:          ,ARGON
#FLOW RATE 1 /(ml/min):,75
#M.RANGE /µm:          ,500
#CORR. CODE:           ,010
#RANGE:                ,20.0°C/3.0(K/min)/1100.0°C
#SEGMENT:              ,S1/1
#SEG. 1:               ,20.0°C/3.0(K/min)/1100.0°C

##Temp./°C,Time/min,dL/Lo
 21.79600,  0.00000, 1.7087e-005
 21.82100,  0.19500, 1.8653e-005
 21.82400,  0.39000, 1.9635e-005
 21.84100,  0.58500, 2.0183e-005
 21.84100,  0.78000, 2.0894e-005
 21.85000,  0.97500, 2.1110e-005
 21.85700,  1.17000, 2.1809e-005
 21.86300,  1.36500, 2.1976e-005
 21.86900,  1.56000, 2.1725e-005
 21.86500,  1.75500, 2.1741e-005
 21.87100,  1.95000, 2.1900e-005
 21.88000,  2.14500, 2.1760e-005
 21.86900,  2.34000, 2.1681e-005
 21.89300,  2.53500, 2.1612e-005
 21.90600,  2.73000, 2.1536e-005
 21.91800,  2.92500, 2.1293e-005
 21.92700,  3.12000, 2.1402e-005
 21.93900,  3.31500, 2.0999e-005
 21.97500,  3.51000, 2.0705e-005
 22.01200,  3.70500, 1.9849e-005
 22.10200,  3.90000, 1.8900e-005
 22.23800,  4.09500, 1.7391e-005
 22.41600,  4.29000, 1.5561e-005
 22.66900,  4.48500, 1.3457e-005
 22.97200,  4.68000, 1.0902e-005
 23.33500,  4.87500, 8.1715e-006
 23.77900,  5.07000, 5.5499e-006
 24.29600,  5.26500, 2.9270e-006
 24.85000,  5.46000, 3.1222e-007
 25.48800,  5.65500,-1.5841e-006
 26.16600,  5.85000,-3.4943e-006
 26.90300,  6.04500,-4.6774e-006
 27.68800,  6.24000,-5.2027e-006
 28.49700,  6.43500,-5.1355e-006
 29.32300,  6.63000,-4.2411e-006
 30.19000,  6.82500,-2.5785e-006
 31.06900,  7.02000,-2.6610e-008
 31.97200,  7.21500, 2.9496e-006
 32.86100,  7.41000, 6.9482e-006
 33.78000,  7.60500, 1.1539e-005
 34.68600,  7.80000, 1.6457e-005
 35.58300,  7.99500, 2.2041e-005
 36.51000,  8.19000, 2.8920e-005
 37.43400,  8.38500, 3.5317e-005
 38.34100,  8.58000, 4.2270e-005
 39.25700,  8.77500, 4.9663e-005
 40.18300,  8.97000, 5.7042e-005
 41.11400,  9.16500, 6.5249e-005
 42.03100,  9.36000, 7.3109e-005
 42.97400,  9.55500, 8.1389e-005
 43.90900,  9.75000, 8.9836e-005
 44.85700,  9.94500, 9.8377e-005
 45.80500, 10.14000, 1.0708e-004
 46.76700, 10.33500, 1.1590e-004
 47.74200, 10.53000, 1.2565e-004
 48.71600, 10.72500, 1.3447e-004
 49.69400, 10.92000, 1.4426e-004
 50.69000, 11.11500, 1.5376e-004
 51.68700, 11.31000, 1.6350e-004
 52.68600, 11.50500, 1.7319e-004
 53.68900, 11.70000, 1.8311e-004
 54.70100, 11.89500, 1.9382e-004
 55.71700, 12.09000, 2.0431e-004
 56.73600, 12.28500, 2.1495e-004
 57.75800, 12.48000, 2.2562e-004
 58.78800, 12.67500, 2.3679e-004
 59.82300, 12.87000, 2.4807e-004
 60.84900, 13.06500, 2.5929e-004
 61.87400, 13.26000, 2.7108e-004
 62.90000, 13.45500, 2.8242e-004
 63.92800, 13.65000, 2.9424e-004
 64.95200, 13.84500, 3.0619e-004
 65.97700, 14.04000, 3.1846e-004
 67.00500, 14.23500, 3.3052e-004
 68.03600, 14.43000, 3.4327e-004
 69.06200, 14.62500, 3.5566e-004
 70.08900, 14.82000, 3.6813e-004
 71.11200, 15.01500, 3.8052e-004
 72.13700, 15.21000, 3.9298e-004
 73.15100, 15.40500, 4.0565e-004
 74.17800, 15.60000, 4.1830e-004
 75.20400, 15.79500, 4.3145e-004
 76.21800, 15.99000, 4.4453e-004
 77.22800, 16.18500, 4.5689e-004
 78.23400, 16.38000, 4.6953e-004
 79.24800, 16.57500, 4.8236e-004
 80.26200, 16.77000, 4.9558e-004
 81.26600, 16.96500, 5.0833e-004
 82.28000, 17.16000, 5.2116e-004
 83.27600, 17.35500, 5.3402e-004
 84.28500, 17.55000, 5.4749e-004
 85.29100, 17.74500, 5.6048e-004
 86.29800, 17.94000, 5.7319e-004
 87.28600, 18.13500, 5.8612e-004
 88.29100, 18.33000, 5.9902e-004
 89.30100, 18.52500, 6.1263e-004
 90.29600, 18.72000, 6.2574e-004
 91.29000, 18.91500, 6.3873e-004
 92.28000, 19.11000, 6.5191e-004
 93.27200, 19.30500, 6.6515e-004
 94.26000, 19.50000, 6.7870e-004
 95.23200, 19.69500, 6.9169e-004
 96.21400, 19.89000, 7.0505e-004
 97.20100, 20.08500, 7.1850e-004
 98.19400, 20.28000, 7.3199e-004
 99.17700, 20.47500, 7.4547e-004
100.15, 20.67000, 7.5897e-004
101.12, 20.86500, 7.7193e-004
102.095, 21.06000, 7.8550e-004
103.056, 21.25500, 7.9896e-004
104.028, 21.45000, 8.1176e-004
105.002, 21.64500, 8.2478e-004
105.97, 21.84000, 8.3790e-004
106.934, 22.03500, 8.5128e-004
107.894, 22.23000, 8.6416e-004
108.848, 22.42500, 8.7780e-004
109.815, 22.62000, 8.9108e-004
110.777, 22.81500, 9.0478e-004
111.742, 23.01000, 9.1796e-004
112.694, 23.20500, 9.3057e-004
113.654, 23.40000, 9.4399e-004
114.605, 23.59500, 9.5761e-004
115.561, 23.79000, 9.7129e-004
116.508, 23.98500, 9.8462e-004
117.461, 24.18000, 9.9831e-004
118.423, 24.37500, 1.0116e-003
119.36, 24.57000, 1.0247e-003
120.311, 24.76500, 1.0381e-003
121.256, 24.96000, 1.0513e-003
122.202, 25.15500, 1.0647e-003
123.144, 25.35000, 1.0784e-003
124.092, 25.54500, 1.0923e-003
125.034, 25.74000, 1.1050e-003
125.977, 25.93500, 1.1188e-003
126.912, 26.13000, 1.1316e-003
127.851, 26.32500, 1.1449e-003
128.775, 26.52000, 1.1576e-003
129.713, 26.71500, 1.1708e-003
130.645, 26.91000, 1.1842e-003
131.584, 27.10500, 1.1978e-003
132.51, 27.30000, 1.2114e-003
133.438, 27.49500, 1.2251e-003
134.362, 27.69000, 1.2381e-003
135.304, 27.88500, 1.2522e-003
136.223, 28.08000, 1.2656e-003
137.159, 28.27500, 1.2791e-003
138.084, 28.47000, 1.2923e-003
139.011, 28.66500, 1.3062e-003
139.951, 28.86000, 1.3195e-003
140.863, 29.05500, 1.3323e-003
141.774, 29.25000, 1.3453e-003
142.7, 29.44500, 1.3592e-003
143.62, 29.64000, 1.3721e-003
144.533, 29.83500, 1.3855e-003
145.454, 30.03000, 1.3986e-003
146.371, 30.22500, 1.4120e-003
147.292, 30.42000, 1.4251e-003
148.204, 30.61500, 1.4384e-003
149.104, 30.81000, 1.4516e-003
150.022, 31.00500, 1.4650e-003
150.93, 31.20000, 1.4783e-003
151.851, 31.39500, 1.4917e-003
152.759, 31.59000, 1.5050e-003
153.677, 31.78500, 1.5181e-003
154.581, 31.98000, 1.5314e-003
155.485, 32.17500, 1.5444e-003
156.392, 32.37000, 1.5578e-003
157.295, 32.56500, 1.5708e-003
158.192, 32.76000, 1.5840e-003
159.102, 32.95500, 1.5974e-003
160, 33.15000, 1.6107e-003
160.908, 33.34500, 1.6238e-003
161.81, 33.54000, 1.6373e-003
162.704, 33.73500, 1.6500e-003
163.604, 33.93000, 1.6631e-003
164.505, 34.12500, 1.6764e-003
165.4, 34.32000, 1.6894e-003
166.302, 34.51500, 1.7024e-003
167.205, 34.71000, 1.7158e-003
168.09, 34.90500, 1.7285e-003
168.984, 35.10000, 1.7418e-003
169.874, 35.29500, 1.7550e-003
170.764, 35.49000, 1.7682e-003
171.648, 35.68500, 1.7813e-003
172.544, 35.88000, 1.7945e-003
173.432, 36.07500, 1.8075e-003
174.311, 36.27000, 1.8207e-003
175.207, 36.46500, 1.8338e-003
176.094, 36.66000, 1.8469e-003
176.976, 36.85500, 1.8601e-003
177.863, 37.05000, 1.8732e-003
178.739, 37.24500, 1.8862e-003
179.619, 37.44000, 1.8995e-003
180.501, 37.63500, 1.9128e-003
181.388, 37.83000, 1.9261e-003
182.27, 38.02500, 1.9388e-003
183.153, 38.22000, 1.9520e-003
184.022, 38.41500, 1.9648e-003
184.901, 38.61000, 1.9778e-003
185.774, 38.80500, 1.9909e-003
186.649, 39.00000, 2.0037e-003
187.514, 39.19500, 2.0168e-003
188.391, 39.39000, 2.0300e-003
189.266, 39.58500, 2.0430e-003
190.14, 39.78000, 2.0559e-003
191.013, 39.97500, 2.0684e-003
191.881, 40.17000, 2.0816e-003
192.75, 40.36500, 2.0946e-003
193.619, 40.56000, 2.1076e-003
194.483, 40.75500, 2.1206e-003
195.35, 40.95000, 2.1336e-003
196.223, 41.14500, 2.1466e-003
197.081, 41.34000, 2.1594e-003
197.951, 41.53500, 2.1721e-003
198.816, 41.73000, 2.1852e-003
199.674, 41.92500, 2.1978e-003
200.531, 42.12000, 2.2105e-003
201.4, 42.31500, 2.2236e-003
202.266, 42.51000, 2.2369e-003
203.128, 42.70500, 2.2495e-003
203.981, 42.90000, 2.2623e-003
204.838, 43.09500, 2.2751e-003
205.693, 43.29000, 2.2880e-003
206.552, 43.48500, 2.3010e-003
207.403, 43.68000, 2.3139e-003
208.256, 43.87500, 2.3263e-003
209.11, 44.07000, 2.3397e-003
209.958, 44.26500, 2.3523e-003
210.807, 44.46000, 2.3651e-003
211.656, 44.65500, 2.3777e-003
212.497, 44.85000, 2.3899e-003
213.341, 45.04500, 2.4027e-003
214.181, 45.24000, 2.4153e-003
215.029, 45.43500, 2.4281e-003
215.875, 45.63000, 2.4406e-003
216.721, 45.82500, 2.4532e-003
217.562, 46.02000, 2.4655e-003
218.404, 46.21500, 2.4785e-003
219.24, 46.41000, 2.4909e-003
220.09, 46.60500, 2.5034e-003
220.927, 46.80000, 2.5161e-003
221.774, 46.99500, 2.5287e-003
222.61, 47.19000, 2.5414e-003
223.451, 47.38500, 2.5541e-003
224.282, 47.58000, 2.5665e-003
225.11, 47.77500, 2.5790e-003
225.954, 47.97000, 2.5916e-003
226.788, 48.16500, 2.6044e-003
227.622, 48.36000, 2.6172e-003
228.456, 48.55500, 2.6296e-003
229.281, 48.75000, 2.6420e-003
230.113, 48.94500, 2.6546e-003
230.941, 49.14000, 2.6671e-003
231.77, 49.33500, 2.6796e-003
232.592, 49.53000, 2.6924e-003
233.424, 49.72500, 2.7052e-003
234.249, 49.92000, 2.7177e-003
235.076, 50.11500, 2.7303e-003
235.895, 50.31000, 2.7429e-003
236.716, 50.50500, 2.7555e-003
237.541, 50.70000, 2.7681e-003
238.352, 50.89500, 2.7808e-003
239.172, 51.09000, 2.7933e-003
239.978, 51.28500, 2.8057e-003
240.786, 51.48000, 2.8185e-003
241.601, 51.67500, 2.8313e-003
242.411, 51.87000, 2.8439e-003
243.212, 52.06500, 2.8560e-003
244.024, 52.26000, 2.8685e-003
244.828, 52.45500, 2.8807e-003
245.643, 52.65000, 2.8930e-003
246.446, 52.84500, 2.9056e-003
247.252, 53.04000, 2.9182e-003
248.059, 53.23500, 2.9303e-003
248.871, 53.43000, 2.9426e-003
249.676, 53.62500, 2.9549e-003
250.49, 53.82000, 2.9671e-003
251.303, 54.01500, 2.9792e-003
252.116, 54.21000, 2.9914e-003
252.933, 54.40500, 3.0034e-003
253.751, 54.60000, 3.0155e-003
254.561, 54.79500, 3.0275e-003
255.386, 54.99000, 3.0399e-003
256.211, 55.18500, 3.0520e-003
257.036, 55.38000, 3.0641e-003
257.854, 55.57500, 3.0763e-003
258.684, 55.77000, 3.0882e-003
259.502, 55.96500, 3.1000e-003
260.329, 56.16000, 3.1120e-003
261.15, 56.35500, 3.1240e-003
261.975, 56.55000, 3.1364e-003
262.801, 56.74500, 3.1487e-003
263.62, 56.94000, 3.1604e-003
264.442, 57.13500, 3.1729e-003
265.267, 57.33000, 3.1850e-003
266.087, 57.52500, 3.1973e-003
266.911, 57.72000, 3.2096e-003
267.733, 57.91500, 3.2217e-003
268.543, 58.11000, 3.2335e-003
269.368, 58.30500, 3.2462e-003
270.185, 58.50000, 3.2585e-003
271.004, 58.69500, 3.2705e-003
271.819, 58.89000, 3.2828e-003
272.635, 59.08500, 3.2948e-003
273.433, 59.28000, 3.3070e-003
274.245, 59.47500, 3.3193e-003
275.053, 59.67000, 3.3315e-003
275.846, 59.86500, 3.3435e-003
276.644, 60.06000, 3.3554e-003
277.452, 60.25500, 3.3678e-003
278.245, 60.45000, 3.3799e-003
279.044, 60.64500, 3.3919e-003
279.841, 60.84000, 3.4042e-003
280.632, 61.03500, 3.4163e-003
281.428, 61.23000, 3.4283e-003
282.225, 61.42500, 3.4402e-003
283.014, 61.62000, 3.4521e-003
283.811, 61.81500, 3.4645e-003
284.595, 62.01000, 3.4759e-003
285.376, 62.20500, 3.4882e-003
286.163, 62.40000, 3.5001e-003
286.952, 62.59500, 3.5123e-003
287.735, 62.79000, 3.5239e-003
288.514, 62.98500, 3.5358e-003
289.292, 63.18000, 3.5476e-003
290.061, 63.37500, 3.5593e-003
290.846, 63.57000, 3.5711e-003
291.621, 63.76500, 3.5830e-003
292.39, 63.96000, 3.5948e-003
293.16, 64.15500, 3.6065e-003
293.925, 64.35000, 3.6182e-003
294.698, 64.54500, 3.6304e-003
295.461, 64.74000, 3.6417e-003
296.231, 64.93500, 3.6534e-003
297.005, 65.13000, 3.6652e-003
297.765, 65.32500, 3.6767e-003
298.53, 65.52000, 3.6885e-003
299.286, 65.71500, 3.6998e-003
300.05, 65.91000, 3.7113e-003
300.804, 66.10500, 3.7227e-003
301.57, 66.30000, 3.7345e-003
302.339, 66.49500, 3.7461e-003
303.09, 66.69000, 3.7573e-003
303.843, 66.88500, 3.7688e-003
304.596, 67.08000, 3.7802e-003
305.355, 67.27500, 3.7919e-003
306.108, 67.47000, 3.8031e-003
306.869, 67.66500, 3.8146e-003
307.613, 67.86000, 3.8255e-003
308.364, 68.05500, 3.8371e-003
309.117, 68.25000, 3.8486e-003
309.877, 68.44500, 3.8598e-003
310.623, 68.64000, 3.8711e-003
311.362, 68.83500, 3.8826e-003
312.108, 69.03000, 3.8938e-003
312.858, 69.22500, 3.9053e-003
313.602, 69.42000, 3.9167e-003
314.347, 69.61500, 3.9278e-003
315.09, 69.81000, 3.9389e-003
315.826, 70.00500, 3.9501e-003
316.57, 70.20000, 3.9616e-003
317.308, 70.39500, 3.9726e-003
318.05, 70.59000, 3.9839e-003
318.787, 70.78500, 3.9951e-003
319.519, 70.98000, 4.0061e-003
320.252, 71.17500, 4.0174e-003
320.992, 71.37000, 4.0285e-003
321.729, 71.56500, 4.0395e-003
322.457, 71.76000, 4.0505e-003
323.196, 71.95500, 4.0620e-003
323.926, 72.15000, 4.0728e-003
324.666, 72.34500, 4.0839e-003
325.396, 72.54000, 4.0950e-003
326.13, 72.73500, 4.1061e-003
326.861, 72.93000, 4.1170e-003
327.591, 73.12500, 4.1282e-003
328.323, 73.32000, 4.1392e-003
329.053, 73.51500, 4.1504e-003
329.77, 73.71000, 4.1613e-003
330.492, 73.90500, 4.1721e-003
331.214, 74.10000, 4.1831e-003
331.95, 74.29500, 4.1943e-003
332.678, 74.49000, 4.2052e-003
333.401, 74.68500, 4.2161e-003
334.118, 74.88000, 4.2273e-003
334.843, 75.07500, 4.2382e-003
335.559, 75.27000, 4.2488e-003
336.283, 75.46500, 4.2600e-003
337.01, 75.66000, 4.2708e-003
337.726, 75.85500, 4.2817e-003
338.449, 76.05000, 4.2926e-003
339.17, 76.24500, 4.3036e-003
339.881, 76.44000, 4.3141e-003
340.594, 76.63500, 4.3249e-003
341.311, 76.83000, 4.3359e-003
342.033, 77.02500, 4.3466e-003
342.747, 77.22000, 4.3577e-003
343.471, 77.41500, 4.3682e-003
344.178, 77.61000, 4.3791e-003
344.887, 77.80500, 4.3900e-003
345.605, 78.00000, 4.4007e-003
346.317, 78.19500, 4.4113e-003
347.035, 78.39000, 4.4221e-003
347.753, 78.58500, 4.4331e-003
348.461, 78.78000, 4.4437e-003
349.173, 78.97500, 4.4545e-003
349.879, 79.17000, 4.4653e-003
350.592, 79.36500, 4.4758e-003
351.3, 79.56000, 4.4861e-003
352.006, 79.75500, 4.4970e-003
352.711, 79.95000, 4.5077e-003
353.423, 80.14500, 4.5186e-003
354.122, 80.34000, 4.5290e-003
354.833, 80.53500, 4.5399e-003
355.536, 80.73000, 4.5507e-003
356.243, 80.92500, 4.5610e-003
356.947, 81.12000, 4.5718e-003
357.645, 81.31500, 4.5824e-003
358.344, 81.51000, 4.5931e-003
359.044, 81.70500, 4.6036e-003
359.755, 81.90000, 4.6143e-003
360.449, 82.09500, 4.6245e-003
361.144, 82.29000, 4.6350e-003
361.838, 82.48500, 4.6454e-003
362.543, 82.68000, 4.6563e-003
363.242, 82.87500, 4.6667e-003
363.939, 83.07000, 4.6773e-003
364.637, 83.26500, 4.6879e-003
365.34, 83.46000, 4.6986e-003
366.033, 83.65500, 4.7090e-003
366.735, 83.85000, 4.7198e-003
367.424, 84.04500, 4.7302e-003
368.112, 84.24000, 4.7406e-003
368.804, 84.43500, 4.7512e-003
369.497, 84.63000, 4.7618e-003
370.193, 84.82500, 4.7721e-003
370.883, 85.02000, 4.7829e-003
371.581, 85.21500, 4.7935e-003
372.268, 85.41000, 4.8037e-003
372.958, 85.60500, 4.8143e-003
373.648, 85.80000, 4.8246e-003
374.328, 85.99500, 4.8349e-003
375.009, 86.19000, 4.8456e-003
375.704, 86.38500, 4.8562e-003
376.387, 86.58000, 4.8664e-003
377.071, 86.77500, 4.8766e-003
377.754, 86.97000, 4.8869e-003
378.444, 87.16500, 4.8975e-003
379.128, 87.36000, 4.9080e-003
379.813, 87.55500, 4.9181e-003
380.506, 87.75000, 4.9288e-003
381.186, 87.94500, 4.9392e-003
381.871, 88.14000, 4.9497e-003
382.555, 88.33500, 4.9601e-003
383.242, 88.53000, 4.9707e-003
383.919, 88.72500, 4.9808e-003
384.602, 88.92000, 4.9911e-003
385.275, 89.11500, 5.0013e-003
385.951, 89.31000, 5.0116e-003
386.638, 89.50500, 5.0220e-003
387.309, 89.70000, 5.0323e-003
387.994, 89.89500, 5.0429e-003
388.669, 90.09000, 5.0532e-003
389.343, 90.28500, 5.0634e-003
390.015, 90.48000, 5.0735e-003
390.688, 90.67500, 5.0836e-003
391.361, 90.87000, 5.0940e-003
392.039, 91.06500, 5.1044e-003
392.715, 91.26000, 5.1146e-003
393.379, 91.45500, 5.1246e-003
394.055, 91.65000, 5.1350e-003
394.737, 91.84500, 5.1454e-003
395.408, 92.04000, 5.1554e-003
396.075, 92.23500, 5.1659e-003
396.747, 92.43000, 5.1759e-003
397.421, 92.62500, 5.1863e-003
398.091, 92.82000, 5.1962e-003
398.762, 93.01500, 5.2065e-003
399.43, 93.21000, 5.2168e-003
400.099, 93.40500, 5.2272e-003
400.768, 93.60000, 5.2375e-003
401.435, 93.79500, 5.2474e-003
402.099, 93.99000, 5.2573e-003
402.766, 94.18500, 5.2676e-003
403.432, 94.38000, 5.2781e-003
404.101, 94.57500, 5.2886e-003
404.763, 94.77000, 5.2982e-003
405.432, 94.96500, 5.3084e-003
406.097, 95.16000, 5.3186e-003
406.756, 95.35500, 5.3284e-003
407.421, 95.55000, 5.3383e-003
408.081, 95.74500, 5.3484e-003
408.744, 95.94000, 5.3585e-003
409.407, 96.13500, 5.3686e-003
410.07, 96.33000, 5.3787e-003
410.736, 96.52500, 5.3889e-003
411.397, 96.72000, 5.3990e-003
412.054, 96.91500, 5.4089e-003
412.707, 97.11000, 5.4191e-003
413.373, 97.30500, 5.4292e-003
414.034, 97.50000, 5.4393e-003
414.685, 97.69500, 5.4492e-003
415.344, 97.89000, 5.4591e-003
416.007, 98.08500, 5.4689e-003
416.657, 98.28000, 5.4788e-003
417.313, 98.47500, 5.4892e-003
417.965, 98.67000, 5.4993e-003
418.619, 98.86500, 5.5092e-003
419.274, 99.06000, 5.5190e-003
419.928, 99.25500, 5.5289e-003
420.582, 99.45000, 5.5386e-003
421.239, 99.64500, 5.5486e-003
421.898, 99.84000, 5.5586e-003
422.555,100.035, 5.5685e-003
423.208,100.23, 5.5786e-003
423.857,100.425, 5.5886e-003
424.507,100.62, 5.5985e-003
425.162,100.815, 5.6086e-003
425.819,101.01, 5.6190e-003
426.464,101.205, 5.6287e-003
427.116,101.4, 5.6387e-003
427.766,101.595, 5.6488e-003
428.411,101.79, 5.6587e-003
429.05,101.985, 5.6683e-003
429.703,102.18, 5.6783e-003
430.351,102.375, 5.6881e-003
430.994,102.57, 5.6978e-003
431.642,102.765, 5.7076e-003
432.289,102.96, 5.7180e-003
432.931,103.155, 5.7277e-003
433.581,103.35, 5.7376e-003
434.221,103.545, 5.7473e-003
434.871,103.74, 5.7574e-003
435.514,103.935, 5.7673e-003
436.155,104.13, 5.7769e-003
436.797,104.325, 5.7866e-003
437.436,104.52, 5.7964e-003
438.076,104.715, 5.8063e-003
438.715,104.91, 5.8160e-003
439.35,105.105, 5.8258e-003
439.993,105.3, 5.8358e-003
440.638,105.495, 5.8455e-003
441.279,105.69, 5.8557e-003
441.924,105.885, 5.8654e-003
442.563,106.08, 5.8753e-003
443.197,106.275, 5.8848e-003
443.826,106.47, 5.8949e-003
444.462,106.665, 5.9043e-003
445.102,106.86, 5.9143e-003
445.742,107.055, 5.9239e-003
446.384,107.25, 5.9335e-003
447.019,107.445, 5.9433e-003
447.657,107.64, 5.9532e-003
448.288,107.835, 5.9627e-003
448.926,108.03, 5.9729e-003
449.56,108.225, 5.9823e-003
450.192,108.42, 5.9920e-003
450.83,108.615, 6.0020e-003
451.459,108.81, 6.0119e-003
452.093,109.005, 6.0219e-003
452.725,109.2, 6.0315e-003
453.359,109.395, 6.0414e-003
453.995,109.59, 6.0513e-003
454.618,109.785, 6.0613e-003
455.246,109.98, 6.0710e-003
455.866,110.175, 6.0806e-003
456.497,110.37, 6.0905e-003
457.12,110.565, 6.1003e-003
457.736,110.76, 6.1099e-003
458.36,110.955, 6.1197e-003
458.982,111.15, 6.1297e-003
459.598,111.345, 6.1394e-003
460.225,111.54, 6.1493e-003
460.847,111.735, 6.1589e-003
461.467,111.93, 6.1686e-003
462.093,112.125, 6.1780e-003
462.712,112.32, 6.1875e-003
463.336,112.515, 6.1970e-003
463.965,112.71, 6.2065e-003
464.59,112.905, 6.2157e-003
465.224,113.1, 6.2255e-003
465.861,113.295, 6.2348e-003
466.489,113.49, 6.2439e-003
467.123,113.685, 6.2533e-003
467.759,113.88, 6.2626e-003
468.4,114.075, 6.2721e-003
469.037,114.27, 6.2817e-003
469.676,114.465, 6.2914e-003
470.319,114.66, 6.3010e-003
470.961,114.855, 6.3109e-003
471.597,115.05, 6.3201e-003
472.237,115.245, 6.3300e-003
472.871,115.44, 6.3397e-003
473.509,115.635, 6.3495e-003
474.14,115.83, 6.3588e-003
474.779,116.025, 6.3688e-003
475.407,116.22, 6.3781e-003
476.042,116.415, 6.3881e-003
476.672,116.61, 6.3976e-003
477.313,116.805, 6.4074e-003
477.943,117, 6.4167e-003
478.567,117.195, 6.4261e-003
479.195,117.39, 6.4356e-003
479.825,117.585, 6.4452e-003
480.454,117.78, 6.4547e-003
481.082,117.975, 6.4642e-003
481.712,118.17, 6.4739e-003
482.335,118.365, 6.4836e-003
482.958,118.56, 6.4929e-003
483.581,118.755, 6.5026e-003
484.204,118.95, 6.5122e-003
484.832,119.145, 6.5218e-003
485.442,119.34, 6.5311e-003
486.061,119.535, 6.5406e-003
486.673,119.73, 6.5500e-003
487.302,119.925, 6.5598e-003
487.922,120.12, 6.5693e-003
488.533,120.315, 6.5788e-003
489.151,120.51, 6.5883e-003
489.767,120.705, 6.5974e-003
490.385,120.9, 6.6067e-003
490.995,121.095, 6.6159e-003
491.61,121.29, 6.6255e-003
492.228,121.485, 6.6348e-003
492.841,121.68, 6.6442e-003
493.465,121.875, 6.6534e-003
494.072,122.07, 6.6627e-003
494.682,122.265, 6.6720e-003
495.302,122.46, 6.6818e-003
495.911,122.655, 6.6911e-003
496.525,122.85, 6.7005e-003
497.13,123.045, 6.7099e-003
497.744,123.24, 6.7194e-003
498.35,123.435, 6.7288e-003
498.958,123.63, 6.7379e-003
499.566,123.825, 6.7473e-003
500.169,124.02, 6.7567e-003
500.781,124.215, 6.7661e-003
501.387,124.41, 6.7754e-003
501.992,124.605, 6.7848e-003
502.602,124.8, 6.7942e-003
503.201,124.995, 6.8031e-003
503.804,125.19, 6.8121e-003
504.405,125.385, 6.8211e-003
505.007,125.58, 6.8303e-003
505.606,125.775, 6.8394e-003
506.215,125.97, 6.8490e-003
506.814,126.165, 6.8579e-003
507.411,126.36, 6.8672e-003
508.011,126.555, 6.8765e-003
508.612,126.75, 6.8858e-003
509.195,126.945, 6.8948e-003
509.802,127.14, 6.9041e-003
510.403,127.335, 6.9133e-003
511.009,127.53, 6.9224e-003
511.605,127.725, 6.9316e-003
512.205,127.92, 6.9407e-003
512.801,128.115, 6.9501e-003
513.393,128.31, 6.9592e-003
513.994,128.505, 6.9684e-003
514.597,128.7, 6.9775e-003
515.191,128.895, 6.9866e-003
515.79,129.09, 6.9956e-003
516.382,129.285, 7.0049e-003
516.981,129.48, 7.0139e-003
517.583,129.675, 7.0229e-003
518.175,129.87, 7.0319e-003
518.772,130.065, 7.0408e-003
519.36,130.26, 7.0498e-003
519.948,130.455, 7.0585e-003
520.542,130.65, 7.0677e-003
521.129,130.845, 7.0766e-003
521.728,131.04, 7.0857e-003
522.319,131.235, 7.0947e-003
522.904,131.43, 7.1039e-003
523.509,131.625, 7.1131e-003
524.099,131.82, 7.1220e-003
524.688,132.015, 7.1315e-003
525.285,132.21, 7.1404e-003
525.875,132.405, 7.1497e-003
526.468,132.6, 7.1588e-003
527.059,132.795, 7.1678e-003
527.64,132.99, 7.1764e-003
528.24,133.185, 7.1856e-003
528.828,133.38, 7.1948e-003
529.407,133.575, 7.2037e-003
529.998,133.77, 7.2128e-003
530.592,133.965, 7.2220e-003
531.186,134.16, 7.2315e-003
531.773,134.355, 7.2405e-003
532.358,134.55, 7.2494e-003
532.946,134.745, 7.2585e-003
533.539,134.94, 7.2678e-003
534.119,135.135, 7.2761e-003
534.708,135.33, 7.2850e-003
535.298,135.525, 7.2941e-003
535.881,135.72, 7.3030e-003
536.467,135.915, 7.3121e-003
537.053,136.11, 7.3210e-003
537.641,136.305, 7.3298e-003
538.222,136.5, 7.3391e-003
538.796,136.695, 7.3482e-003
539.386,136.89, 7.3572e-003
539.973,137.085, 7.3660e-003
540.557,137.28, 7.3751e-003
541.14,137.475, 7.3841e-003
541.729,137.67, 7.3932e-003
542.308,137.865, 7.4021e-003
542.89,138.06, 7.4111e-003
543.473,138.255, 7.4202e-003
544.061,138.45, 7.4293e-003
544.645,138.645, 7.4381e-003
545.226,138.84, 7.4472e-003
545.802,139.035, 7.4560e-003
546.379,139.23, 7.4650e-003
546.96,139.425, 7.4738e-003
547.537,139.62, 7.4827e-003
548.117,139.815, 7.4919e-003
548.692,140.01, 7.5008e-003
549.272,140.205, 7.5100e-003
549.845,140.4, 7.5186e-003
550.429,140.595, 7.5278e-003
551.009,140.79, 7.5362e-003
551.587,140.985, 7.5448e-003
552.171,141.18, 7.5538e-003
552.751,141.375, 7.5626e-003
553.331,141.57, 7.5718e-003
553.907,141.765, 7.5806e-003
554.49,141.96, 7.5893e-003
555.064,142.155, 7.5983e-003
555.639,142.35, 7.6073e-003
556.218,142.545, 7.6160e-003
556.795,142.74, 7.6252e-003
557.375,142.935, 7.6340e-003
557.953,143.13, 7.6431e-003
558.523,143.325, 7.6518e-003
559.098,143.52, 7.6606e-003
559.675,143.715, 7.6695e-003
560.238,143.91, 7.6782e-003
560.815,144.105, 7.6872e-003
561.39,144.3, 7.6962e-003
561.966,144.495, 7.7048e-003
562.534,144.69, 7.7136e-003
563.096,144.885, 7.7224e-003
563.672,145.08, 7.7314e-003
564.245,145.275, 7.7400e-003
564.823,145.47, 7.7490e-003
565.401,145.665, 7.7581e-003
565.972,145.86, 7.7665e-003
566.543,146.055, 7.7754e-003
567.114,146.25, 7.7842e-003
567.691,146.445, 7.7929e-003
568.257,146.64, 7.8016e-003
568.827,146.835, 7.8100e-003
569.401,147.03, 7.8189e-003
569.968,147.225, 7.8278e-003
570.53,147.42, 7.8363e-003
571.097,147.615, 7.8452e-003
571.671,147.81, 7.8539e-003
572.234,148.005, 7.8627e-003
572.798,148.2, 7.8714e-003
573.367,148.395, 7.8802e-003
573.929,148.59, 7.8888e-003
574.494,148.785, 7.8979e-003
575.066,148.98, 7.9067e-003
575.628,149.175, 7.9159e-003
576.191,149.37, 7.9244e-003
576.756,149.565, 7.9334e-003
577.309,149.76, 7.9423e-003
577.868,149.955, 7.9512e-003
578.429,150.15, 7.9604e-003
578.988,150.345, 7.9690e-003
579.542,150.54, 7.9777e-003
580.101,150.735, 7.9865e-003
580.661,150.93, 7.9955e-003
581.228,151.125, 8.0045e-003
581.788,151.32, 8.0130e-003
582.347,151.515, 8.0217e-003
582.907,151.71, 8.0302e-003
583.475,151.905, 8.0391e-003
584.033,152.1, 8.0475e-003
584.596,152.295, 8.0562e-003
585.158,152.49, 8.0648e-003
585.728,152.685, 8.0733e-003
586.293,152.88, 8.0820e-003
586.858,153.075, 8.0904e-003
587.432,153.27, 8.0986e-003
588.004,153.465, 8.1068e-003
588.582,153.66, 8.1154e-003
589.152,153.855, 8.1241e-003
589.727,154.05, 8.1329e-003
590.304,154.245, 8.1417e-003
590.877,154.44, 8.1504e-003
591.451,154.635, 8.1593e-003
592.02,154.83, 8.1681e-003
592.591,155.025, 8.1766e-003
593.158,155.22, 8.1856e-003
593.73,155.415, 8.1942e-003
594.301,155.61, 8.2031e-003
594.871,155.805, 8.2119e-003
595.44,156, 8.2209e-003
596.008,156.195, 8.2296e-003
596.573,156.39, 8.2383e-003
597.143,156.585, 8.2471e-003
597.711,156.78, 8.2555e-003
598.279,156.975, 8.2645e-003
598.844,157.17, 8.2731e-003
599.413,157.365, 8.2819e-003
599.979,157.56, 8.2905e-003
600.538,157.755, 8.2993e-003
601.099,157.95, 8.3077e-003
601.666,158.145, 8.3164e-003
602.226,158.34, 8.3252e-003
602.788,158.535, 8.3340e-003
603.353,158.73, 8.3430e-003
603.918,158.925, 8.3516e-003
604.474,159.12, 8.3603e-003
605.033,159.315, 8.3689e-003
605.604,159.51, 8.3779e-003
606.16,159.705, 8.3862e-003
606.723,159.9, 8.3942e-003
607.28,160.095, 8.4028e-003
607.841,160.29, 8.4112e-003
608.398,160.485, 8.4197e-003
608.953,160.68, 8.4282e-003
609.512,160.875, 8.4369e-003
610.068,161.07, 8.4454e-003
610.623,161.265, 8.4540e-003
611.176,161.46, 8.4626e-003
611.737,161.655, 8.4712e-003
612.288,161.85, 8.4798e-003
612.846,162.045, 8.4887e-003
613.403,162.24, 8.4974e-003
613.955,162.435, 8.5057e-003
614.511,162.63, 8.5144e-003
615.06,162.825, 8.5229e-003
615.62,163.02, 8.5318e-003
616.165,163.215, 8.5401e-003
616.716,163.41, 8.5485e-003
617.28,163.605, 8.5572e-003
617.826,163.8, 8.5657e-003
618.38,163.995, 8.5741e-003
618.934,164.19, 8.5827e-003
619.486,164.385, 8.5915e-003
620.042,164.58, 8.6000e-003
620.594,164.775, 8.6088e-003
621.143,164.97, 8.6171e-003
621.689,165.165, 8.6254e-003
622.233,165.36, 8.6340e-003
622.788,165.555, 8.6428e-003
623.339,165.75, 8.6515e-003
623.885,165.945, 8.6600e-003
624.44,166.14, 8.6685e-003
624.983,166.335, 8.6763e-003
625.532,166.53, 8.6843e-003
626.078,166.725, 8.6927e-003
626.626,166.92, 8.7013e-003
627.169,167.115, 8.7096e-003
627.719,167.31, 8.7181e-003
628.267,167.505, 8.7265e-003
628.815,167.7, 8.7352e-003
629.365,167.895, 8.7436e-003
629.917,168.09, 8.7522e-003
630.468,168.285, 8.7608e-003
631.014,168.48, 8.7696e-003
631.554,168.675, 8.7780e-003
632.099,168.87, 8.7865e-003
632.647,169.065, 8.7948e-003
633.189,169.26, 8.8034e-003
633.732,169.455, 8.8120e-003
634.277,169.65, 8.8205e-003
634.83,169.845, 8.8292e-003
635.373,170.04, 8.8377e-003
635.919,170.235, 8.8460e-003
636.461,170.43, 8.8545e-003
637.015,170.625, 8.8629e-003
637.553,170.82, 8.8713e-003
638.097,171.015, 8.8799e-003
638.649,171.21, 8.8885e-003
639.191,171.405, 8.8969e-003
639.727,171.6, 8.9055e-003
640.273,171.795, 8.9140e-003
640.817,171.99, 8.9224e-003
641.35,172.185, 8.9307e-003
641.893,172.38, 8.9392e-003
642.434,172.575, 8.9477e-003
642.975,172.77, 8.9562e-003
643.51,172.965, 8.9636e-003
644.057,173.16, 8.9717e-003
644.596,173.355, 8.9801e-003
645.135,173.55, 8.9886e-003
645.669,173.745, 8.9969e-003
646.207,173.94, 9.0050e-003
646.747,174.135, 9.0135e-003
647.29,174.33, 9.0221e-003
647.828,174.525, 9.0304e-003
648.372,174.72, 9.0388e-003
648.91,174.915, 9.0471e-003
649.449,175.11, 9.0557e-003
649.984,175.305, 9.0638e-003
650.525,175.5, 9.0725e-003
651.063,175.695, 9.0807e-003
651.611,175.89, 9.0895e-003
652.143,176.085, 9.0977e-003
652.676,176.28, 9.1057e-003
653.214,176.475, 9.1143e-003
653.752,176.67, 9.1227e-003
654.293,176.865, 9.1313e-003
654.836,177.06, 9.1397e-003
655.373,177.255, 9.1479e-003
655.907,177.45, 9.1563e-003
656.44,177.645, 9.1649e-003
656.985,177.84, 9.1731e-003
657.523,178.035, 9.1815e-003
658.058,178.23, 9.1899e-003
658.595,178.425, 9.1983e-003
659.131,178.62, 9.2067e-003
659.67,178.815, 9.2152e-003
660.206,179.01, 9.2239e-003
660.734,179.205, 9.2323e-003
661.279,179.4, 9.2406e-003
661.801,179.595, 9.2479e-003
662.335,179.79, 9.2562e-003
662.867,179.985, 9.2647e-003
663.394,180.18, 9.2725e-003
663.923,180.375, 9.2809e-003
664.454,180.57, 9.2892e-003
664.981,180.765, 9.2974e-003
665.506,180.96, 9.3057e-003
666.034,181.155, 9.3138e-003
666.565,181.35, 9.3224e-003
667.091,181.545, 9.3310e-003
667.62,181.74, 9.3393e-003
668.146,181.935, 9.3475e-003
668.664,182.13, 9.3560e-003
669.195,182.325, 9.3646e-003
669.718,182.52, 9.3731e-003
670.236,182.715, 9.3811e-003
670.765,182.91, 9.3898e-003
671.29,183.105, 9.3978e-003
671.816,183.3, 9.4063e-003
672.344,183.495, 9.4146e-003
672.867,183.69, 9.4228e-003
673.398,183.885, 9.4310e-003
673.924,184.08, 9.4393e-003
674.455,184.275, 9.4475e-003
674.98,184.47, 9.4555e-003
675.516,184.665, 9.4640e-003
676.045,184.86, 9.4721e-003
676.577,185.055, 9.4801e-003
677.114,185.25, 9.4886e-003
677.647,185.445, 9.4971e-003
678.185,185.64, 9.5050e-003
678.722,185.835, 9.5134e-003
679.253,186.03, 9.5216e-003
679.799,186.225, 9.5303e-003
680.332,186.42, 9.5384e-003
680.867,186.615, 9.5466e-003
681.398,186.81, 9.5552e-003
681.927,187.005, 9.5634e-003
682.464,187.2, 9.5708e-003
682.986,187.395, 9.5785e-003
683.519,187.59, 9.5869e-003
684.052,187.785, 9.5950e-003
684.584,187.98, 9.6033e-003
685.116,188.175, 9.6117e-003
685.652,188.37, 9.6200e-003
686.184,188.565, 9.6281e-003
686.72,188.76, 9.6364e-003
687.255,188.955, 9.6451e-003
687.786,189.15, 9.6532e-003
688.315,189.345, 9.6617e-003
688.848,189.54, 9.6696e-003
689.373,189.735, 9.6782e-003
689.907,189.93, 9.6867e-003
690.43,190.125, 9.6946e-003
690.952,190.32, 9.7032e-003
691.475,190.515, 9.7115e-003
691.996,190.71, 9.7199e-003
692.524,190.905, 9.7283e-003
693.038,191.1, 9.7363e-003
693.561,191.295, 9.7447e-003
694.08,191.49, 9.7527e-003
694.594,191.685, 9.7610e-003
695.116,191.88, 9.7691e-003
695.634,192.075, 9.7769e-003
696.153,192.27, 9.7854e-003
696.668,192.465, 9.7934e-003
697.179,192.66, 9.8015e-003
697.696,192.855, 9.8097e-003
698.203,193.05, 9.8175e-003
698.72,193.245, 9.8258e-003
699.225,193.44, 9.8337e-003
699.742,193.635, 9.8420e-003
700.251,193.83, 9.8501e-003
700.761,194.025, 9.8583e-003
701.274,194.22, 9.8662e-003
701.784,194.415, 9.8743e-003
702.295,194.61, 9.8822e-003
702.809,194.805, 9.8901e-003
703.32,195, 9.8984e-003
703.832,195.195, 9.9054e-003
704.344,195.39, 9.9132e-003
704.854,195.585, 9.9208e-003
705.365,195.78, 9.9289e-003
705.881,195.975, 9.9369e-003
706.392,196.17, 9.9450e-003
706.901,196.365, 9.9530e-003
707.414,196.56, 9.9611e-003
707.921,196.755, 9.9690e-003
708.438,196.95, 9.9772e-003
708.945,197.145, 9.9849e-003
709.455,197.34, 9.9931e-003
709.958,197.535, 1.0001e-002
710.473,197.73, 1.0009e-002
710.982,197.925, 1.0017e-002
711.494,198.12, 1.0025e-002
711.999,198.315, 1.0033e-002
712.517,198.51, 1.0041e-002
713.027,198.705, 1.0049e-002
713.544,198.9, 1.0058e-002
714.046,199.095, 1.0065e-002
714.557,199.29, 1.0073e-002
715.063,199.485, 1.0081e-002
715.57,199.68, 1.0090e-002
716.071,199.875, 1.0097e-002
716.58,200.07, 1.0105e-002
717.095,200.265, 1.0114e-002
717.6,200.46, 1.0121e-002
718.109,200.655, 1.0129e-002
718.618,200.85, 1.0137e-002
719.131,201.045, 1.0145e-002
719.639,201.24, 1.0153e-002
720.147,201.435, 1.0161e-002
720.661,201.63, 1.0169e-002
721.164,201.825, 1.0177e-002
721.676,202.02, 1.0185e-002
722.184,202.215, 1.0193e-002
722.691,202.41, 1.0201e-002
723.202,202.605, 1.0209e-002
723.712,202.8, 1.0217e-002
724.221,202.995, 1.0225e-002
724.726,203.19, 1.0233e-002
725.238,203.385, 1.0241e-002
725.747,203.58, 1.0248e-002
726.256,203.775, 1.0256e-002
726.766,203.97, 1.0264e-002
727.274,204.165, 1.0272e-002
727.778,204.36, 1.0280e-002
728.29,204.555, 1.0288e-002
728.795,204.75, 1.0296e-002
729.303,204.945, 1.0304e-002
729.807,205.14, 1.0312e-002
730.316,205.335, 1.0320e-002
730.815,205.53, 1.0327e-002
731.316,205.725, 1.0335e-002
731.826,205.92, 1.0343e-002
732.33,206.115, 1.0351e-002
732.84,206.31, 1.0359e-002
733.344,206.505, 1.0367e-002
733.85,206.7, 1.0375e-002
734.362,206.895, 1.0383e-002
734.863,207.09, 1.0391e-002
735.371,207.285, 1.0399e-002
735.882,207.48, 1.0407e-002
736.386,207.675, 1.0415e-002
736.894,207.87, 1.0423e-002
737.401,208.065, 1.0431e-002
737.907,208.26, 1.0440e-002
738.417,208.455, 1.0447e-002
738.915,208.65, 1.0455e-002
739.415,208.845, 1.0463e-002
739.922,209.04, 1.0471e-002
740.421,209.235, 1.0479e-002
740.917,209.43, 1.0488e-002
741.424,209.625, 1.0496e-002
741.92,209.82, 1.0504e-002
742.422,210.015, 1.0512e-002
742.922,210.21, 1.0520e-002
743.425,210.405, 1.0528e-002
743.92,210.6, 1.0536e-002
744.415,210.795, 1.0544e-002
744.908,210.99, 1.0552e-002
745.401,211.185, 1.0560e-002
745.893,211.38, 1.0568e-002
746.387,211.575, 1.0576e-002
746.886,211.77, 1.0584e-002
747.386,211.965, 1.0592e-002
747.884,212.16, 1.0600e-002
748.384,212.355, 1.0607e-002
748.883,212.55, 1.0615e-002
749.38,212.745, 1.0623e-002
749.889,212.94, 1.0630e-002
750.397,213.135, 1.0638e-002
750.902,213.33, 1.0646e-002
751.411,213.525, 1.0654e-002
751.909,213.72, 1.0662e-002
752.425,213.915, 1.0669e-002
752.935,214.11, 1.0678e-002
753.441,214.305, 1.0685e-002
753.954,214.5, 1.0693e-002
754.465,214.695, 1.0701e-002
754.98,214.89, 1.0710e-002
755.492,215.085, 1.0717e-002
755.992,215.28, 1.0726e-002
756.509,215.475, 1.0734e-002
757.019,215.67, 1.0742e-002
757.542,215.865, 1.0750e-002
758.049,216.06, 1.0758e-002
758.557,216.255, 1.0766e-002
759.069,216.45, 1.0774e-002
759.567,216.645, 1.0782e-002
760.075,216.84, 1.0790e-002
760.587,217.035, 1.0798e-002
761.092,217.23, 1.0806e-002
761.607,217.425, 1.0814e-002
762.108,217.62, 1.0822e-002
762.621,217.815, 1.0830e-002
763.132,218.01, 1.0838e-002
763.645,218.205, 1.0846e-002
764.15,218.4, 1.0854e-002
764.662,218.595, 1.0862e-002
765.172,218.79, 1.0870e-002
765.685,218.985, 1.0878e-002
766.199,219.18, 1.0886e-002
766.703,219.375, 1.0894e-002
767.212,219.57, 1.0902e-002
767.717,219.765, 1.0910e-002
768.228,219.96, 1.0918e-002
768.73,220.155, 1.0926e-002
769.243,220.35, 1.0934e-002
769.749,220.545, 1.0942e-002
770.253,220.74, 1.0950e-002
770.756,220.935, 1.0958e-002
771.266,221.13, 1.0966e-002
771.775,221.325, 1.0974e-002
772.281,221.52, 1.0982e-002
772.784,221.715, 1.0990e-002
773.285,221.91, 1.0999e-002
773.775,222.105, 1.1007e-002
774.258,222.3, 1.1015e-002
774.745,222.495, 1.1023e-002
775.22,222.69, 1.1030e-002
775.704,222.885, 1.1038e-002
776.189,223.08, 1.1046e-002
776.674,223.275, 1.1053e-002
777.151,223.47, 1.1060e-002
777.63,223.665, 1.1068e-002
778.111,223.86, 1.1075e-002
778.598,224.055, 1.1082e-002
779.082,224.25, 1.1090e-002
779.567,224.445, 1.1098e-002
780.051,224.64, 1.1106e-002
780.533,224.835, 1.1113e-002
781.006,225.03, 1.1121e-002
781.485,225.225, 1.1129e-002
781.957,225.42, 1.1137e-002
782.436,225.615, 1.1144e-002
782.913,225.81, 1.1152e-002
783.391,226.005, 1.1160e-002
783.868,226.2, 1.1167e-002
784.35,226.395, 1.1175e-002
784.825,226.59, 1.1183e-002
785.306,226.785, 1.1191e-002
785.783,226.98, 1.1199e-002
786.261,227.175, 1.1206e-002
786.734,227.37, 1.1214e-002
787.216,227.565, 1.1222e-002
787.689,227.76, 1.1229e-002
788.17,227.955, 1.1237e-002
788.645,228.15, 1.1244e-002
789.123,228.345, 1.1252e-002
789.602,228.54, 1.1260e-002
790.081,228.735, 1.1267e-002
790.563,228.93, 1.1275e-002
791.047,229.125, 1.1283e-002
791.524,229.32, 1.1291e-002
792.007,229.515, 1.1299e-002
792.479,229.71, 1.1306e-002
792.956,229.905, 1.1314e-002
793.436,230.1, 1.1322e-002
793.914,230.295, 1.1329e-002
794.391,230.49, 1.1337e-002
794.872,230.685, 1.1344e-002
795.343,230.88, 1.1352e-002
795.825,231.075, 1.1360e-002
796.308,231.27, 1.1367e-002
796.783,231.465, 1.1375e-002
797.258,231.66, 1.1383e-002
797.74,231.855, 1.1390e-002
798.212,232.05, 1.1398e-002
798.695,232.245, 1.1406e-002
799.172,232.44, 1.1413e-002
799.655,232.635, 1.1421e-002
800.132,232.83, 1.1429e-002
800.617,233.025, 1.1436e-002
801.097,233.22, 1.1443e-002
801.577,233.415, 1.1451e-002
802.056,233.61, 1.1459e-002
802.544,233.805, 1.1467e-002
803.026,234, 1.1475e-002
803.503,234.195, 1.1482e-002
803.986,234.39, 1.1490e-002
804.462,234.585, 1.1498e-002
804.94,234.78, 1.1506e-002
805.415,234.975, 1.1513e-002
805.889,235.17, 1.1521e-002
806.373,235.365, 1.1529e-002
806.843,235.56, 1.1537e-002
807.32,235.755, 1.1544e-002
807.793,235.95, 1.1552e-002
808.269,236.145, 1.1559e-002
808.747,236.34, 1.1567e-002
809.226,236.535, 1.1574e-002
809.705,236.73, 1.1582e-002
810.19,236.925, 1.1589e-002
810.667,237.12, 1.1597e-002
811.153,237.315, 1.1605e-002
811.632,237.51, 1.1612e-002
812.114,237.705, 1.1620e-002
812.592,237.9, 1.1628e-002
813.081,238.095, 1.1636e-002
813.563,238.29, 1.1643e-002
814.043,238.485, 1.1651e-002
814.522,238.68, 1.1658e-002
815.016,238.875, 1.1666e-002
815.51,239.07, 1.1674e-002
816,239.265, 1.1681e-002
816.494,239.46, 1.1689e-002
816.998,239.655, 1.1697e-002
817.485,239.85, 1.1704e-002
817.981,240.045, 1.1713e-002
818.487,240.24, 1.1720e-002
818.979,240.435, 1.1728e-002
819.471,240.63, 1.1736e-002
819.972,240.825, 1.1744e-002
820.46,241.02, 1.1752e-002
820.95,241.215, 1.1760e-002
821.446,241.41, 1.1767e-002
821.943,241.605, 1.1775e-002
822.44,241.8, 1.1783e-002
822.938,241.995, 1.1791e-002
823.435,242.19, 1.1799e-002
823.926,242.385, 1.1806e-002
824.432,242.58, 1.1815e-002
824.928,242.775, 1.1822e-002
825.439,242.97, 1.1831e-002
825.934,243.165, 1.1838e-002
826.436,243.36, 1.1846e-002
826.937,243.555, 1.1854e-002
827.43,243.75, 1.1862e-002
827.919,243.945, 1.1869e-002
828.425,244.14, 1.1878e-002
828.925,244.335, 1.1885e-002
829.42,244.53, 1.1893e-002
829.925,244.725, 1.1901e-002
830.425,244.92, 1.1909e-002
830.927,245.115, 1.1917e-002
831.437,245.31, 1.1925e-002
831.943,245.505, 1.1933e-002
832.442,245.7, 1.1940e-002
832.951,245.895, 1.1948e-002
833.467,246.09, 1.1957e-002
833.964,246.285, 1.1964e-002
834.469,246.48, 1.1972e-002
834.978,246.675, 1.1980e-002
835.482,246.87, 1.1988e-002
835.988,247.065, 1.1997e-002
836.488,247.26, 1.2004e-002
836.995,247.455, 1.2012e-002
837.501,247.65, 1.2020e-002
838.006,247.845, 1.2028e-002
838.514,248.04, 1.2036e-002
839.024,248.235, 1.2045e-002
839.533,248.43, 1.2052e-002
840.042,248.625, 1.2061e-002
840.551,248.82, 1.2069e-002
841.069,249.015, 1.2077e-002
841.573,249.21, 1.2085e-002
842.079,249.405, 1.2093e-002
842.581,249.6, 1.2101e-002
843.091,249.795, 1.2109e-002
843.6,249.99, 1.2117e-002
844.116,250.185, 1.2125e-002
844.627,250.38, 1.2133e-002
845.138,250.575, 1.2141e-002
845.644,250.77, 1.2149e-002
846.159,250.965, 1.2157e-002
846.674,251.16, 1.2166e-002
847.181,251.355, 1.2174e-002
847.687,251.55, 1.2182e-002
848.198,251.745, 1.2190e-002
848.707,251.94, 1.2198e-002
849.221,252.135, 1.2206e-002
849.732,252.33, 1.2214e-002
850.238,252.525, 1.2221e-002
850.749,252.72, 1.2229e-002
851.261,252.915, 1.2237e-002
851.767,253.11, 1.2245e-002
852.283,253.305, 1.2253e-002
852.795,253.5, 1.2261e-002
853.299,253.695, 1.2269e-002
853.815,253.89, 1.2277e-002
854.327,254.085, 1.2285e-002
854.836,254.28, 1.2293e-002
855.353,254.475, 1.2301e-002
855.868,254.67, 1.2309e-002
856.385,254.865, 1.2318e-002
856.898,255.06, 1.2326e-002
857.407,255.255, 1.2334e-002
857.92,255.45, 1.2342e-002
858.43,255.645, 1.2350e-002
858.943,255.84, 1.2358e-002
859.456,256.035, 1.2367e-002
859.97,256.23, 1.2374e-002
860.487,256.425, 1.2383e-002
861.001,256.62, 1.2391e-002
861.517,256.815, 1.2399e-002
862.03,257.01, 1.2407e-002
862.543,257.205, 1.2416e-002
863.048,257.4, 1.2424e-002
863.566,257.595, 1.2432e-002
864.087,257.79, 1.2440e-002
864.59,257.985, 1.2449e-002
865.098,258.18, 1.2456e-002
865.607,258.375, 1.2465e-002
866.12,258.57, 1.2473e-002
866.64,258.765, 1.2481e-002
867.145,258.96, 1.2489e-002
867.655,259.155, 1.2498e-002
868.168,259.35, 1.2506e-002
868.685,259.545, 1.2515e-002
869.191,259.74, 1.2523e-002
869.697,259.935, 1.2531e-002
870.205,260.13, 1.2539e-002
870.716,260.325, 1.2548e-002
871.226,260.52, 1.2556e-002
871.728,260.715, 1.2564e-002
872.245,260.91, 1.2573e-002
872.747,261.105, 1.2581e-002
873.251,261.3, 1.2589e-002
873.761,261.495, 1.2597e-002
874.272,261.69, 1.2605e-002
874.776,261.885, 1.2614e-002
875.289,262.08, 1.2622e-002
875.807,262.275, 1.2630e-002
876.316,262.47, 1.2638e-002
876.828,262.665, 1.2646e-002
877.339,262.86, 1.2655e-002
877.855,263.055, 1.2663e-002
878.367,263.25, 1.2671e-002
878.893,263.445, 1.2679e-002
879.412,263.64, 1.2687e-002
879.925,263.835, 1.2696e-002
880.442,264.03, 1.2704e-002
880.959,264.225, 1.2712e-002
881.477,264.42, 1.2721e-002
881.998,264.615, 1.2729e-002
882.511,264.81, 1.2737e-002
883.028,265.005, 1.2745e-002
883.541,265.2, 1.2754e-002
884.055,265.395, 1.2762e-002
884.574,265.59, 1.2770e-002
885.08,265.785, 1.2779e-002
885.598,265.98, 1.2787e-002
886.111,266.175, 1.2795e-002
886.626,266.37, 1.2804e-002
887.143,266.565, 1.2812e-002
887.644,266.76, 1.2820e-002
888.157,266.955, 1.2828e-002
888.665,267.15, 1.2836e-002
889.186,267.345, 1.2845e-002
889.692,267.54, 1.2853e-002
890.206,267.735, 1.2861e-002
890.721,267.93, 1.2869e-002
891.231,268.125, 1.2877e-002
891.743,268.32, 1.2885e-002
892.253,268.515, 1.2893e-002
892.764,268.71, 1.2902e-002
893.28,268.905, 1.2910e-002
893.784,269.1, 1.2918e-002
894.298,269.295, 1.2926e-002
894.809,269.49, 1.2935e-002
895.321,269.685, 1.2943e-002
895.834,269.88, 1.2951e-002
896.342,270.075, 1.2959e-002
896.849,270.27, 1.2968e-002
897.352,270.465, 1.2976e-002
897.858,270.66, 1.2984e-002
898.371,270.855, 1.2992e-002
898.883,271.05, 1.3000e-002
899.39,271.245, 1.3008e-002
899.902,271.44, 1.3017e-002
900.407,271.635, 1.3023e-002
900.918,271.83, 1.3032e-002
901.415,272.025, 1.3040e-002
901.915,272.22, 1.3048e-002
902.407,272.415, 1.3056e-002
902.895,272.61, 1.3064e-002
903.36,272.805, 1.3072e-002
903.804,273, 1.3080e-002
904.238,273.195, 1.3088e-002
904.666,273.39, 1.3095e-002
905.094,273.585, 1.3103e-002
905.53,273.78, 1.3110e-002
905.972,273.975, 1.3117e-002
906.429,274.17, 1.3124e-002
906.884,274.365, 1.3131e-002