File: data_backup/14.1mm-083019/ExpDat_sapph14.1mm08302019.csv
#EXPORTTYPE:           ,DATA ALL
#FILE:                 ,sapph14mm08302019.ngb-cle
#FORMAT:               ,NETZSCH5
#FTYPE:                ,ANSI
#IDENTITY:             ,sapph stnd 14
#DECIMAL:              ,POINT
#SEPARATOR:            ,COMMA
#MTYPE:                ,DIL
#INSTRUMENT:           ,NETZSCH DIL 402C
#PROJECT:              ,feldspar
#DATE/TIME:            ,8/30/2019 10:03:28 AM (UTC-5)
#CORR. FILE:           ,
#TEMPCAL:              ,TCALZERO.TMX
#LABORATORY:           ,Mineral Physics
#OPERATOR:             ,PAG
#REMARK:               ,bare, norm start, for bytown and rocks
#SAMPLE:               ,sapphire
#SAMPLE LENGTH /mm:    ,14.059
#MATERIAL:             ,sapphire stnd
#MEASMODE:             ,Standard Expansion
#PURGE GAS 1:          ,ARGON
#FLOW RATE 1 /(ml/min):,75
#M.RANGE /µm:          ,500
#CORR. CODE:           ,010
#RANGE:                ,20.0°C/3.0(K/min)/1350.0°C/25.0(K/min)/900.0°C/
#SEGMENT:              ,S1-2/2
#SEG. 1:               ,20.0°C/3.0(K/min)/1350.0°C
#SEG. 2:               ,1350.0°C/25.0(K/min)/900.0°C

##Temp./°C,Time/min,dL/Lo,Segment
  22.04700,  0.00000, 1.8881e-005,1
  22.06100,  0.32500, 1.8349e-005,1
  22.05300,  0.65000, 1.7928e-005,1
  22.07900,  0.97500, 1.7713e-005,1
  22.07500,  1.30000, 1.7125e-005,1
  22.07400,  1.62500, 1.6851e-005,1
  22.08200,  1.95000, 1.6134e-005,1
  22.09600,  2.27500, 1.6172e-005,1
  22.09100,  2.60000, 1.5914e-005,1
  22.10000,  2.92500, 1.5703e-005,1
  22.09900,  3.25000, 1.5367e-005,1
  22.13500,  3.57500, 1.4842e-005,1
  22.27000,  3.90000, 1.3761e-005,1
  22.51700,  4.22500, 1.1979e-005,1
  22.91100,  4.55000, 8.8297e-006,1
  23.47500,  4.87500, 6.0163e-006,1
  24.25900,  5.20000, 2.8312e-006,1
  25.20500,  5.52500,-1.9617e-007,1
  26.32800,  5.85000,-1.5958e-006,1
  27.59400,  6.17500,-2.1602e-006,1
  28.97100,  6.50000,-1.0679e-006,1
  30.42100,  6.82500, 2.1921e-006,1
  31.94000,  7.15000, 7.1918e-006,1
  33.45300,  7.47500, 1.3499e-005,1
  35.01200,  7.80000, 2.1745e-005,1
  36.56000,  8.12500, 3.1423e-005,1
  38.11400,  8.45000, 4.2386e-005,1
  39.67100,  8.77500, 5.4017e-005,1
  41.22000,  9.10000, 6.6298e-005,1
  42.80000,  9.42500, 7.9565e-005,1
  44.38900,  9.75000, 9.3087e-005,1
  46.00500, 10.07500, 1.0747e-004,1
  47.63600, 10.40000, 1.2200e-004,1
  49.26000, 10.72500, 1.3726e-004,1
  50.92100, 11.05000, 1.5277e-004,1
  52.60800, 11.37500, 1.6877e-004,1
  54.30500, 11.70000, 1.8612e-004,1
  56.02100, 12.02500, 2.0441e-004,1
  57.74700, 12.35000, 2.2315e-004,1
  59.47700, 12.67500, 2.4236e-004,1
  61.20600, 13.00000, 2.6187e-004,1
  62.94300, 13.32500, 2.8177e-004,1
  64.67600, 13.65000, 3.0232e-004,1
  66.40300, 13.97500, 3.2288e-004,1
  68.14800, 14.30000, 3.4413e-004,1
  69.87000, 14.62500, 3.6556e-004,1
  71.59300, 14.95000, 3.8708e-004,1
  73.32100, 15.27500, 4.0898e-004,1
  75.03200, 15.60000, 4.3127e-004,1
  76.74200, 15.92500, 4.5309e-004,1
  78.46100, 16.25000, 4.7549e-004,1
  80.16500, 16.57500, 4.9785e-004,1
  81.86900, 16.90000, 5.2062e-004,1
  83.56700, 17.22500, 5.4331e-004,1
  85.25800, 17.55000, 5.6595e-004,1
  86.95000, 17.87500, 5.8907e-004,1
  88.63100, 18.20000, 6.1199e-004,1
  90.30300, 18.52500, 6.3526e-004,1
  91.97400, 18.85000, 6.5864e-004,1
  93.64900, 19.17500, 6.8255e-004,1
  95.31300, 19.50000, 7.0564e-004,1
  96.96300, 19.82500, 7.2932e-004,1
  98.62300, 20.15000, 7.5287e-004,1
 100.262, 20.47500, 7.7609e-004,1
 101.896, 20.80000, 8.0006e-004,1
 103.535, 21.12500, 8.2330e-004,1
 105.174, 21.45000, 8.4713e-004,1
 106.799, 21.77500, 8.7065e-004,1
 108.439, 22.10000, 8.9424e-004,1
 110.057, 22.42500, 9.1756e-004,1
 111.672, 22.75000, 9.4114e-004,1
 113.289, 23.07500, 9.6424e-004,1
 114.901, 23.40000, 9.8783e-004,1
 116.511, 23.72500, 1.0114e-003,1
 118.113, 24.05000, 1.0345e-003,1
 119.716, 24.37500, 1.0582e-003,1
 121.31, 24.70000, 1.0816e-003,1
 122.915, 25.02500, 1.1047e-003,1
 124.506, 25.35000, 1.1283e-003,1
 126.089, 25.67500, 1.1512e-003,1
 127.668, 26.00000, 1.1746e-003,1
 129.258, 26.32500, 1.1980e-003,1
 130.831, 26.65000, 1.2215e-003,1
 132.404, 26.97500, 1.2449e-003,1
 133.97, 27.30000, 1.2680e-003,1
 135.535, 27.62500, 1.2913e-003,1
 137.088, 27.95000, 1.3144e-003,1
 138.648, 28.27500, 1.3380e-003,1
 140.214, 28.60000, 1.3610e-003,1
 141.749, 28.92500, 1.3844e-003,1
 143.298, 29.25000, 1.4073e-003,1
 144.842, 29.57500, 1.4301e-003,1
 146.38, 29.90000, 1.4532e-003,1
 147.923, 30.22500, 1.4760e-003,1
 149.464, 30.55000, 1.4993e-003,1
 150.993, 30.87500, 1.5220e-003,1
 152.523, 31.20000, 1.5449e-003,1
 154.058, 31.52500, 1.5679e-003,1
 155.578, 31.85000, 1.5906e-003,1
 157.099, 32.17500, 1.6137e-003,1
 158.625, 32.50000, 1.6363e-003,1
 160.146, 32.82500, 1.6591e-003,1
 161.665, 33.15000, 1.6819e-003,1
 163.176, 33.47500, 1.7042e-003,1
 164.693, 33.80000, 1.7271e-003,1
 166.188, 34.12500, 1.7495e-003,1
 167.698, 34.45000, 1.7721e-003,1
 169.201, 34.77500, 1.7949e-003,1
 170.712, 35.10000, 1.8180e-003,1
 172.218, 35.42500, 1.8406e-003,1
 173.696, 35.75000, 1.8625e-003,1
 175.191, 36.07500, 1.8854e-003,1
 176.676, 36.40000, 1.9079e-003,1
 178.17, 36.72500, 1.9305e-003,1
 179.65, 37.05000, 1.9529e-003,1
 181.131, 37.37500, 1.9753e-003,1
 182.614, 37.70000, 1.9977e-003,1
 184.092, 38.02500, 2.0200e-003,1
 185.56, 38.35000, 2.0425e-003,1
 187.044, 38.67500, 2.0650e-003,1
 188.517, 39.00000, 2.0871e-003,1
 189.984, 39.32500, 2.1093e-003,1
 191.443, 39.65000, 2.1316e-003,1
 192.907, 39.97500, 2.1538e-003,1
 194.381, 40.30000, 2.1761e-003,1
 195.84, 40.62500, 2.1984e-003,1
 197.294, 40.95000, 2.2202e-003,1
 198.745, 41.27500, 2.2422e-003,1
 200.191, 41.60000, 2.2643e-003,1
 201.644, 41.92500, 2.2864e-003,1
 203.09, 42.25000, 2.3083e-003,1
 204.532, 42.57500, 2.3305e-003,1
 205.972, 42.90000, 2.3522e-003,1
 207.406, 43.22500, 2.3743e-003,1
 208.849, 43.55000, 2.3959e-003,1
 210.271, 43.87500, 2.4179e-003,1
 211.698, 44.20000, 2.4397e-003,1
 213.125, 44.52500, 2.4613e-003,1
 214.55, 44.85000, 2.4830e-003,1
 215.965, 45.17500, 2.5044e-003,1
 217.392, 45.50000, 2.5262e-003,1
 218.797, 45.82500, 2.5478e-003,1
 220.213, 46.15000, 2.5693e-003,1
 221.623, 46.47500, 2.5910e-003,1
 223.03, 46.80000, 2.6126e-003,1
 224.435, 47.12500, 2.6344e-003,1
 225.836, 47.45000, 2.6556e-003,1
 227.227, 47.77500, 2.6769e-003,1
 228.627, 48.10000, 2.6985e-003,1
 230.023, 48.42500, 2.7197e-003,1
 231.417, 48.75000, 2.7411e-003,1
 232.808, 49.07500, 2.7625e-003,1
 234.204, 49.40000, 2.7837e-003,1
 235.589, 49.72500, 2.8050e-003,1
 236.976, 50.05000, 2.8261e-003,1
 238.362, 50.37500, 2.8477e-003,1
 239.738, 50.70000, 2.8689e-003,1
 241.114, 51.02500, 2.8902e-003,1
 242.48, 51.35000, 2.9108e-003,1
 243.856, 51.67500, 2.9320e-003,1
 245.223, 52.00000, 2.9529e-003,1
 246.586, 52.32500, 2.9740e-003,1
 247.945, 52.65000, 2.9952e-003,1
 249.302, 52.97500, 3.0164e-003,1
 250.659, 53.30000, 3.0375e-003,1
 252.01, 53.62500, 3.0590e-003,1
 253.366, 53.95000, 3.0804e-003,1
 254.699, 54.27500, 3.1018e-003,1
 256.036, 54.60000, 3.1231e-003,1
 257.365, 54.92500, 3.1447e-003,1
 258.688, 55.25000, 3.1660e-003,1
 260.004, 55.57500, 3.1868e-003,1
 261.32, 55.90000, 3.2077e-003,1
 262.648, 56.22500, 3.2282e-003,1
 263.97, 56.55000, 3.2482e-003,1
 265.298, 56.87500, 3.2680e-003,1
 266.638, 57.20000, 3.2879e-003,1
 267.992, 57.52500, 3.3078e-003,1
 269.357, 57.85000, 3.3274e-003,1
 270.724, 58.17500, 3.3473e-003,1
 272.104, 58.50000, 3.3673e-003,1
 273.481, 58.82500, 3.3873e-003,1
 274.862, 59.15000, 3.4078e-003,1
 276.247, 59.47500, 3.4283e-003,1
 277.621, 59.80000, 3.4486e-003,1
 278.998, 60.12500, 3.4695e-003,1
 280.364, 60.45000, 3.4901e-003,1
 281.725, 60.77500, 3.5111e-003,1
 283.066, 61.10000, 3.5315e-003,1
 284.406, 61.42500, 3.5520e-003,1
 285.746, 61.75000, 3.5728e-003,1
 287.074, 62.07500, 3.5932e-003,1
 288.404, 62.40000, 3.6135e-003,1
 289.719, 62.72500, 3.6336e-003,1
 291.035, 63.05000, 3.6539e-003,1
 292.348, 63.37500, 3.6742e-003,1
 293.652, 63.70000, 3.6944e-003,1
 294.96, 64.02500, 3.7146e-003,1
 296.273, 64.35000, 3.7346e-003,1
 297.578, 64.67500, 3.7549e-003,1
 298.86, 65.00000, 3.7749e-003,1
 300.147, 65.32500, 3.7949e-003,1
 301.431, 65.65000, 3.8152e-003,1
 302.701, 65.97500, 3.8346e-003,1
 303.973, 66.30000, 3.8548e-003,1
 305.227, 66.62500, 3.8740e-003,1
 306.494, 66.95000, 3.8938e-003,1
 307.753, 67.27500, 3.9135e-003,1
 309.001, 67.60000, 3.9329e-003,1
 310.262, 67.92500, 3.9526e-003,1
 311.509, 68.25000, 3.9718e-003,1
 312.752, 68.57500, 3.9915e-003,1
 313.998, 68.90000, 4.0107e-003,1
 315.236, 69.22500, 4.0296e-003,1
 316.471, 69.55000, 4.0487e-003,1
 317.703, 69.87500, 4.0680e-003,1
 318.936, 70.20000, 4.0873e-003,1
 320.18, 70.52500, 4.1064e-003,1
 321.405, 70.85000, 4.1255e-003,1
 322.624, 71.17500, 4.1445e-003,1
 323.844, 71.50000, 4.1632e-003,1
 325.076, 71.82500, 4.1822e-003,1
 326.291, 72.15000, 4.2014e-003,1
 327.512, 72.47500, 4.2200e-003,1
 328.729, 72.80000, 4.2386e-003,1
 329.933, 73.12500, 4.2575e-003,1
 331.147, 73.45000, 4.2765e-003,1
 332.349, 73.77500, 4.2948e-003,1
 333.571, 74.10000, 4.3138e-003,1
 334.765, 74.42500, 4.3323e-003,1
 335.968, 74.75000, 4.3508e-003,1
 337.172, 75.07500, 4.3693e-003,1
 338.381, 75.40000, 4.3881e-003,1
 339.576, 75.72500, 4.4066e-003,1
 340.778, 76.05000, 4.4252e-003,1
 341.976, 76.37500, 4.4436e-003,1
 343.165, 76.70000, 4.4618e-003,1
 344.346, 77.02500, 4.4797e-003,1
 345.547, 77.35000, 4.4986e-003,1
 346.74, 77.67500, 4.5169e-003,1
 347.926, 78.00000, 4.5353e-003,1
 349.106, 78.32500, 4.5537e-003,1
 350.281, 78.65000, 4.5720e-003,1
 351.462, 78.97500, 4.5900e-003,1
 352.645, 79.30000, 4.6082e-003,1
 353.827, 79.62500, 4.6263e-003,1
 355.002, 79.95000, 4.6445e-003,1
 356.19, 80.27500, 4.6623e-003,1
 357.348, 80.60000, 4.6804e-003,1
 358.53, 80.92500, 4.6989e-003,1
 359.703, 81.25000, 4.7167e-003,1
 360.877, 81.57500, 4.7345e-003,1
 362.041, 81.90000, 4.7526e-003,1
 363.22, 82.22500, 4.7708e-003,1
 364.376, 82.55000, 4.7885e-003,1
 365.544, 82.87500, 4.8068e-003,1
 366.709, 83.20000, 4.8244e-003,1
 367.867, 83.52500, 4.8423e-003,1
 369.011, 83.85000, 4.8603e-003,1
 370.174, 84.17500, 4.8778e-003,1
 371.331, 84.50000, 4.8959e-003,1
 372.497, 84.82500, 4.9141e-003,1
 373.653, 85.15000, 4.9320e-003,1
 374.812, 85.47500, 4.9494e-003,1
 375.967, 85.80000, 4.9671e-003,1
 377.118, 86.12500, 4.9848e-003,1
 378.258, 86.45000, 5.0025e-003,1
 379.406, 86.77500, 5.0200e-003,1
 380.55, 87.10000, 5.0379e-003,1
 381.694, 87.42500, 5.0556e-003,1
 382.844, 87.75000, 5.0730e-003,1
 383.985, 88.07500, 5.0908e-003,1
 385.126, 88.40000, 5.1088e-003,1
 386.28, 88.72500, 5.1260e-003,1
 387.41, 89.05000, 5.1437e-003,1
 388.546, 89.37500, 5.1616e-003,1
 389.682, 89.70000, 5.1785e-003,1
 390.815, 90.02500, 5.1963e-003,1
 391.939, 90.35000, 5.2135e-003,1
 393.061, 90.67500, 5.2306e-003,1
 394.193, 91.00000, 5.2490e-003,1
 395.318, 91.32500, 5.2658e-003,1
 396.445, 91.65000, 5.2833e-003,1
 397.573, 91.97500, 5.3010e-003,1
 398.692, 92.30000, 5.3180e-003,1
 399.812, 92.62500, 5.3354e-003,1
 400.933, 92.95000, 5.3527e-003,1
 402.049, 93.27500, 5.3700e-003,1
 403.165, 93.60000, 5.3873e-003,1
 404.274, 93.92500, 5.4043e-003,1
 405.39, 94.25000, 5.4217e-003,1
 406.505, 94.57500, 5.4390e-003,1
 407.616, 94.90000, 5.4559e-003,1
 408.725, 95.22500, 5.4729e-003,1
 409.839, 95.55000, 5.4903e-003,1
 410.939, 95.87500, 5.5071e-003,1
 412.044, 96.20000, 5.5239e-003,1
 413.153, 96.52500, 5.5411e-003,1
 414.26, 96.85000, 5.5585e-003,1
 415.353, 97.17500, 5.5755e-003,1
 416.456, 97.50000, 5.5924e-003,1
 417.552, 97.82500, 5.6093e-003,1
 418.65, 98.15000, 5.6264e-003,1
 419.751, 98.47500, 5.6436e-003,1
 420.848, 98.80000, 5.6601e-003,1
 421.942, 99.12500, 5.6771e-003,1
 423.034, 99.45000, 5.6938e-003,1
 424.137, 99.77500, 5.7110e-003,1
 425.228,100.1, 5.7282e-003,1
 426.307,100.425, 5.7441e-003,1
 427.397,100.75, 5.7612e-003,1
 428.484,101.075, 5.7784e-003,1
 429.573,101.4, 5.7950e-003,1
 430.648,101.725, 5.8118e-003,1
 431.725,102.05, 5.8284e-003,1
 432.803,102.375, 5.8448e-003,1
 433.879,102.7, 5.8614e-003,1
 434.955,103.025, 5.8783e-003,1
 436.03,103.35, 5.8954e-003,1
 437.112,103.675, 5.9117e-003,1
 438.181,104, 5.9281e-003,1
 439.259,104.325, 5.9452e-003,1
 440.332,104.65, 5.9619e-003,1
 441.395,104.975, 5.9783e-003,1
 442.459,105.3, 5.9943e-003,1
 443.518,105.625, 6.0110e-003,1
 444.584,105.95, 6.0274e-003,1
 445.644,106.275, 6.0441e-003,1
 446.706,106.6, 6.0602e-003,1
 447.767,106.925, 6.0770e-003,1
 448.831,107.25, 6.0932e-003,1
 449.899,107.575, 6.1099e-003,1
 450.963,107.9, 6.1268e-003,1
 452.018,108.225, 6.1431e-003,1
 453.07,108.55, 6.1594e-003,1
 454.11,108.875, 6.1762e-003,1
 455.154,109.2, 6.1932e-003,1
 456.197,109.525, 6.2096e-003,1
 457.234,109.85, 6.2272e-003,1
 458.265,110.175, 6.2440e-003,1
 459.294,110.5, 6.2611e-003,1
 460.309,110.825, 6.2772e-003,1
 461.334,111.15, 6.2930e-003,1
 462.363,111.475, 6.3091e-003,1
 463.396,111.8, 6.3252e-003,1
 464.44,112.125, 6.3412e-003,1
 465.485,112.45, 6.3565e-003,1
 466.549,112.775, 6.3724e-003,1
 467.626,113.1, 6.3882e-003,1
 468.708,113.425, 6.4049e-003,1
 469.801,113.75, 6.4202e-003,1
 470.887,114.075, 6.4361e-003,1
 471.982,114.4, 6.4528e-003,1
 473.068,114.725, 6.4689e-003,1
 474.156,115.05, 6.4858e-003,1
 475.245,115.375, 6.5022e-003,1
 476.326,115.7, 6.5190e-003,1
 477.399,116.025, 6.5358e-003,1
 478.466,116.35, 6.5519e-003,1
 479.529,116.675, 6.5684e-003,1
 480.58,117, 6.5847e-003,1
 481.656,117.325, 6.6017e-003,1
 482.698,117.65, 6.6175e-003,1
 483.744,117.975, 6.6339e-003,1
 484.796,118.3, 6.6503e-003,1
 485.834,118.625, 6.6665e-003,1
 486.87,118.95, 6.6828e-003,1
 487.913,119.275, 6.6988e-003,1
 488.943,119.6, 6.7152e-003,1
 489.982,119.925, 6.7308e-003,1
 491.008,120.25, 6.7470e-003,1
 492.035,120.575, 6.7632e-003,1
 493.051,120.9, 6.7791e-003,1
 494.073,121.225, 6.7950e-003,1
 495.084,121.55, 6.8107e-003,1
 496.1,121.875, 6.8264e-003,1
 497.106,122.2, 6.8419e-003,1
 498.112,122.525, 6.8580e-003,1
 499.119,122.85, 6.8732e-003,1
 500.123,123.175, 6.8887e-003,1
 501.135,123.5, 6.9047e-003,1
 502.136,123.825, 6.9206e-003,1
 503.139,124.15, 6.9363e-003,1
 504.142,124.475, 6.9517e-003,1
 505.142,124.8, 6.9676e-003,1
 506.139,125.125, 6.9830e-003,1
 507.133,125.45, 6.9982e-003,1
 508.122,125.775, 7.0138e-003,1
 509.117,126.1, 7.0295e-003,1
 510.099,126.425, 7.0446e-003,1
 511.082,126.75, 7.0599e-003,1
 512.071,127.075, 7.0754e-003,1
 513.054,127.4, 7.0907e-003,1
 514.038,127.725, 7.1061e-003,1
 515.027,128.05, 7.1216e-003,1
 516.018,128.375, 7.1371e-003,1
 517.017,128.7, 7.1525e-003,1
 517.982,129.025, 7.1677e-003,1
 518.978,129.35, 7.1827e-003,1
 519.956,129.675, 7.1982e-003,1
 520.931,130, 7.2132e-003,1
 521.915,130.325, 7.2287e-003,1
 522.893,130.65, 7.2442e-003,1
 523.868,130.975, 7.2593e-003,1
 524.846,131.3, 7.2744e-003,1
 525.813,131.625, 7.2900e-003,1
 526.799,131.95, 7.3055e-003,1
 527.773,132.275, 7.3203e-003,1
 528.75,132.6, 7.3357e-003,1
 529.721,132.925, 7.3509e-003,1
 530.697,133.25, 7.3661e-003,1
 531.676,133.575, 7.3813e-003,1
 532.651,133.9, 7.3964e-003,1
 533.624,134.225, 7.4112e-003,1
 534.587,134.55, 7.4266e-003,1
 535.565,134.875, 7.4421e-003,1
 536.535,135.2, 7.4570e-003,1
 537.504,135.525, 7.4722e-003,1
 538.478,135.85, 7.4878e-003,1
 539.445,136.175, 7.5028e-003,1
 540.408,136.5, 7.5176e-003,1
 541.381,136.825, 7.5331e-003,1
 542.347,137.15, 7.5480e-003,1
 543.314,137.475, 7.5632e-003,1
 544.266,137.8, 7.5786e-003,1
 545.238,138.125, 7.5937e-003,1
 546.199,138.45, 7.6081e-003,1
 547.163,138.775, 7.6237e-003,1
 548.127,139.1, 7.6387e-003,1
 549.088,139.425, 7.6538e-003,1
 550.056,139.75, 7.6688e-003,1
 551.012,140.075, 7.6840e-003,1
 551.964,140.4, 7.6990e-003,1
 552.915,140.725, 7.7139e-003,1
 553.877,141.05, 7.7291e-003,1
 554.83,141.375, 7.7443e-003,1
 555.784,141.7, 7.7593e-003,1
 556.746,142.025, 7.7741e-003,1
 557.703,142.35, 7.7892e-003,1
 558.656,142.675, 7.8038e-003,1
 559.608,143, 7.8190e-003,1
 560.565,143.325, 7.8337e-003,1
 561.518,143.65, 7.8487e-003,1
 562.471,143.975, 7.8640e-003,1
 563.429,144.3, 7.8788e-003,1
 564.37,144.625, 7.8939e-003,1
 565.315,144.95, 7.9085e-003,1
 566.264,145.275, 7.9235e-003,1
 567.205,145.6, 7.9384e-003,1
 568.15,145.925, 7.9534e-003,1
 569.109,146.25, 7.9681e-003,1
 570.051,146.575, 7.9829e-003,1
 571.006,146.9, 7.9982e-003,1
 571.959,147.225, 8.0131e-003,1
 572.888,147.55, 8.0280e-003,1
 573.826,147.875, 8.0431e-003,1
 574.761,148.2, 8.0583e-003,1
 575.685,148.525, 8.0736e-003,1
 576.613,148.85, 8.0889e-003,1
 577.536,149.175, 8.1039e-003,1
 578.446,149.5, 8.1188e-003,1
 579.363,149.825, 8.1338e-003,1
 580.281,150.15, 8.1487e-003,1
 581.211,150.475, 8.1628e-003,1
 582.14,150.8, 8.1770e-003,1
 583.079,151.125, 8.1914e-003,1
 584.029,151.45, 8.2057e-003,1
 584.995,151.775, 8.2201e-003,1
 585.964,152.1, 8.2346e-003,1
 586.936,152.425, 8.2491e-003,1
 587.906,152.75, 8.2637e-003,1
 588.883,153.075, 8.2791e-003,1
 589.853,153.4, 8.2937e-003,1
 590.826,153.725, 8.3089e-003,1
 591.79,154.05, 8.3238e-003,1
 592.753,154.375, 8.3390e-003,1
 593.711,154.7, 8.3540e-003,1
 594.673,155.025, 8.3694e-003,1
 595.626,155.35, 8.3843e-003,1
 596.577,155.675, 8.3992e-003,1
 597.523,156, 8.4140e-003,1
 598.457,156.325, 8.4288e-003,1
 599.409,156.65, 8.4437e-003,1
 600.35,156.975, 8.4584e-003,1
 601.295,157.3, 8.4734e-003,1
 602.231,157.625, 8.4879e-003,1
 603.159,157.95, 8.5023e-003,1
 604.093,158.275, 8.5174e-003,1
 605.024,158.6, 8.5321e-003,1
 605.96,158.925, 8.5467e-003,1
 606.889,159.25, 8.5617e-003,1
 607.809,159.575, 8.5757e-003,1
 608.736,159.9, 8.5907e-003,1
 609.659,160.225, 8.6046e-003,1
 610.586,160.55, 8.6192e-003,1
 611.512,160.875, 8.6345e-003,1
 612.436,161.2, 8.6488e-003,1
 613.347,161.525, 8.6632e-003,1
 614.26,161.85, 8.6773e-003,1
 615.176,162.175, 8.6919e-003,1
 616.089,162.5, 8.7066e-003,1
 617.012,162.825, 8.7215e-003,1
 617.921,163.15, 8.7353e-003,1
 618.842,163.475, 8.7501e-003,1
 619.757,163.8, 8.7648e-003,1
 620.67,164.125, 8.7794e-003,1
 621.585,164.45, 8.7937e-003,1
 622.489,164.775, 8.8083e-003,1
 623.404,165.1, 8.8227e-003,1
 624.309,165.425, 8.8366e-003,1
 625.221,165.75, 8.8513e-003,1
 626.127,166.075, 8.8657e-003,1
 627.036,166.4, 8.8805e-003,1
 627.946,166.725, 8.8948e-003,1
 628.85,167.05, 8.9088e-003,1
 629.751,167.375, 8.9231e-003,1
 630.657,167.7, 8.9375e-003,1
 631.561,168.025, 8.9521e-003,1
 632.469,168.35, 8.9660e-003,1
 633.371,168.675, 8.9809e-003,1
 634.27,169, 8.9948e-003,1
 635.17,169.325, 9.0093e-003,1
 636.072,169.65, 9.0240e-003,1
 636.985,169.975, 9.0381e-003,1
 637.892,170.3, 9.0528e-003,1
 638.791,170.625, 9.0668e-003,1
 639.691,170.95, 9.0814e-003,1
 640.59,171.275, 9.0959e-003,1
 641.483,171.6, 9.1108e-003,1
 642.374,171.925, 9.1255e-003,1
 643.249,172.25, 9.1400e-003,1
 644.136,172.575, 9.1546e-003,1
 645.01,172.9, 9.1688e-003,1
 645.89,173.225, 9.1835e-003,1
 646.762,173.55, 9.1976e-003,1
 647.64,173.875, 9.2116e-003,1
 648.521,174.2, 9.2257e-003,1
 649.411,174.525, 9.2395e-003,1
 650.311,174.85, 9.2533e-003,1
 651.214,175.175, 9.2669e-003,1
 652.135,175.5, 9.2815e-003,1
 653.059,175.825, 9.2954e-003,1
 653.986,176.15, 9.3095e-003,1
 654.906,176.475, 9.3234e-003,1
 655.836,176.8, 9.3379e-003,1
 656.766,177.125, 9.3528e-003,1
 657.686,177.45, 9.3673e-003,1
 658.607,177.775, 9.3818e-003,1
 659.514,178.1, 9.3962e-003,1
 660.435,178.425, 9.4104e-003,1
 661.344,178.75, 9.4248e-003,1
 662.256,179.075, 9.4395e-003,1
 663.169,179.4, 9.4532e-003,1
 664.072,179.725, 9.4677e-003,1
 664.974,180.05, 9.4818e-003,1
 665.875,180.375, 9.4968e-003,1
 666.767,180.7, 9.5104e-003,1
 667.665,181.025, 9.5248e-003,1
 668.561,181.35, 9.5392e-003,1
 669.454,181.675, 9.5532e-003,1
 670.336,182, 9.5671e-003,1
 671.228,182.325, 9.5816e-003,1
 672.113,182.65, 9.5957e-003,1
 672.998,182.975, 9.6095e-003,1
 673.888,183.3, 9.6237e-003,1
 674.773,183.625, 9.6376e-003,1
 675.661,183.95, 9.6519e-003,1
 676.545,184.275, 9.6660e-003,1
 677.431,184.6, 9.6795e-003,1
 678.317,184.925, 9.6938e-003,1
 679.193,185.25, 9.7082e-003,1
 680.067,185.575, 9.7222e-003,1
 680.945,185.9, 9.7363e-003,1
 681.819,186.225, 9.7501e-003,1
 682.692,186.55, 9.7641e-003,1
 683.573,186.875, 9.7784e-003,1
 684.445,187.2, 9.7922e-003,1
 685.316,187.525, 9.8062e-003,1
 686.187,187.85, 9.8197e-003,1
 687.053,188.175, 9.8340e-003,1
 687.916,188.5, 9.8473e-003,1
 688.786,188.825, 9.8619e-003,1
 689.661,189.15, 9.8756e-003,1
 690.519,189.475, 9.8893e-003,1
 691.377,189.8, 9.9037e-003,1
 692.237,190.125, 9.9174e-003,1
 693.1,190.45, 9.9311e-003,1
 693.957,190.775, 9.9446e-003,1
 694.816,191.1, 9.9587e-003,1
 695.67,191.425, 9.9720e-003,1
 696.521,191.75, 9.9859e-003,1
 697.377,192.075, 1.0000e-002,1
 698.23,192.4, 1.0014e-002,1
 699.07,192.725, 1.0028e-002,1
 699.927,193.05, 1.0041e-002,1
 700.774,193.375, 1.0055e-002,1
 701.619,193.7, 1.0068e-002,1
 702.463,194.025, 1.0081e-002,1
 703.314,194.35, 1.0095e-002,1
 704.153,194.675, 1.0109e-002,1
 705.008,195, 1.0122e-002,1
 705.853,195.325, 1.0136e-002,1
 706.696,195.65, 1.0149e-002,1
 707.543,195.975, 1.0162e-002,1
 708.393,196.3, 1.0176e-002,1
 709.247,196.625, 1.0189e-002,1
 710.096,196.95, 1.0203e-002,1
 710.944,197.275, 1.0217e-002,1
 711.794,197.6, 1.0230e-002,1
 712.638,197.925, 1.0244e-002,1
 713.49,198.25, 1.0257e-002,1
 714.338,198.575, 1.0271e-002,1
 715.189,198.9, 1.0285e-002,1
 716.042,199.225, 1.0299e-002,1
 716.883,199.55, 1.0312e-002,1
 717.73,199.875, 1.0325e-002,1
 718.578,200.2, 1.0339e-002,1
 719.42,200.525, 1.0353e-002,1
 720.261,200.85, 1.0367e-002,1
 721.087,201.175, 1.0381e-002,1
 721.921,201.5, 1.0394e-002,1
 722.748,201.825, 1.0408e-002,1
 723.566,202.15, 1.0422e-002,1
 724.387,202.475, 1.0435e-002,1
 725.206,202.8, 1.0449e-002,1
 726.046,203.125, 1.0462e-002,1
 726.884,203.45, 1.0475e-002,1
 727.73,203.775, 1.0488e-002,1
 728.587,204.1, 1.0501e-002,1
 729.448,204.425, 1.0514e-002,1
 730.318,204.75, 1.0527e-002,1
 731.195,205.075, 1.0541e-002,1
 732.067,205.4, 1.0555e-002,1
 732.94,205.725, 1.0569e-002,1
 733.809,206.05, 1.0582e-002,1
 734.689,206.375, 1.0596e-002,1
 735.563,206.7, 1.0610e-002,1
 736.424,207.025, 1.0624e-002,1
 737.298,207.35, 1.0638e-002,1
 738.162,207.675, 1.0652e-002,1
 739.03,208, 1.0666e-002,1
 739.898,208.325, 1.0680e-002,1
 740.755,208.65, 1.0692e-002,1
 741.609,208.975, 1.0706e-002,1
 742.468,209.3, 1.0720e-002,1
 743.33,209.625, 1.0734e-002,1
 744.193,209.95, 1.0748e-002,1
 745.051,210.275, 1.0762e-002,1
 745.905,210.6, 1.0775e-002,1
 746.754,210.925, 1.0788e-002,1
 747.613,211.25, 1.0802e-002,1
 748.468,211.575, 1.0816e-002,1
 749.327,211.9, 1.0830e-002,1
 750.171,212.225, 1.0844e-002,1
 751.019,212.55, 1.0857e-002,1
 751.866,212.875, 1.0870e-002,1
 752.709,213.2, 1.0884e-002,1
 753.562,213.525, 1.0898e-002,1
 754.408,213.85, 1.0911e-002,1
 755.246,214.175, 1.0924e-002,1
 756.105,214.5, 1.0938e-002,1
 756.947,214.825, 1.0951e-002,1
 757.798,215.15, 1.0965e-002,1
 758.645,215.475, 1.0979e-002,1
 759.489,215.8, 1.0992e-002,1
 760.329,216.125, 1.1006e-002,1
 761.165,216.45, 1.1019e-002,1
 762.009,216.775, 1.1033e-002,1
 762.851,217.1, 1.1047e-002,1
 763.689,217.425, 1.1060e-002,1
 764.524,217.75, 1.1074e-002,1
 765.352,218.075, 1.1087e-002,1
 766.192,218.4, 1.1101e-002,1
 767.034,218.725, 1.1113e-002,1
 767.877,219.05, 1.1127e-002,1
 768.716,219.375, 1.1141e-002,1
 769.553,219.7, 1.1154e-002,1
 770.395,220.025, 1.1168e-002,1
 771.23,220.35, 1.1181e-002,1
 772.078,220.675, 1.1195e-002,1
 772.914,221, 1.1208e-002,1
 773.74,221.325, 1.1222e-002,1
 774.586,221.65, 1.1235e-002,1
 775.428,221.975, 1.1248e-002,1
 776.262,222.3, 1.1262e-002,1
 777.097,222.625, 1.1276e-002,1
 777.929,222.95, 1.1289e-002,1
 778.763,223.275, 1.1303e-002,1
 779.602,223.6, 1.1317e-002,1
 780.432,223.925, 1.1331e-002,1
 781.265,224.25, 1.1344e-002,1
 782.099,224.575, 1.1357e-002,1
 782.934,224.9, 1.1371e-002,1
 783.758,225.225, 1.1385e-002,1
 784.588,225.55, 1.1398e-002,1
 785.423,225.875, 1.1412e-002,1
 786.242,226.2, 1.1425e-002,1
 787.035,226.525, 1.1439e-002,1
 787.814,226.85, 1.1453e-002,1
 788.581,227.175, 1.1466e-002,1
 789.337,227.5, 1.1480e-002,1
 790.09,227.825, 1.1493e-002,1
 790.823,228.15, 1.1506e-002,1
 791.551,228.475, 1.1519e-002,1
 792.265,228.8, 1.1531e-002,1
 792.989,229.125, 1.1543e-002,1
 793.731,229.45, 1.1555e-002,1
 794.483,229.775, 1.1567e-002,1
 795.245,230.1, 1.1579e-002,1
 796.043,230.425, 1.1591e-002,1
 796.848,230.75, 1.1603e-002,1
 797.659,231.075, 1.1616e-002,1
 798.474,231.4, 1.1629e-002,1
 799.279,231.725, 1.1643e-002,1
 800.065,232.05, 1.1657e-002,1
 800.847,232.375, 1.1669e-002,1
 801.607,232.7, 1.1682e-002,1
 802.377,233.025, 1.1696e-002,1
 803.127,233.35, 1.1707e-002,1
 803.889,233.675, 1.1720e-002,1
 804.631,234, 1.1733e-002,1
 805.363,234.325, 1.1744e-002,1
 806.097,234.65, 1.1757e-002,1
 806.845,234.975, 1.1769e-002,1
 807.604,235.3, 1.1781e-002,1
 808.37,235.625, 1.1793e-002,1
 809.16,235.95, 1.1805e-002,1
 809.947,236.275, 1.1818e-002,1
 810.736,236.6, 1.1831e-002,1
 811.532,236.925, 1.1844e-002,1
 812.327,237.25, 1.1857e-002,1
 813.124,237.575, 1.1869e-002,1
 813.921,237.9, 1.1882e-002,1
 814.713,238.225, 1.1895e-002,1
 815.514,238.55, 1.1907e-002,1
 816.318,238.875, 1.1920e-002,1
 817.127,239.2, 1.1934e-002,1
 817.939,239.525, 1.1946e-002,1
 818.739,239.85, 1.1959e-002,1
 819.554,240.175, 1.1972e-002,1
 820.365,240.5, 1.1985e-002,1
 821.174,240.825, 1.1998e-002,1
 821.986,241.15, 1.2011e-002,1
 822.799,241.475, 1.2024e-002,1
 823.61,241.8, 1.2037e-002,1
 824.418,242.125, 1.2049e-002,1
 825.241,242.45, 1.2063e-002,1
 826.064,242.775, 1.2076e-002,1
 826.873,243.1, 1.2089e-002,1
 827.686,243.425, 1.2103e-002,1
 828.49,243.75, 1.2115e-002,1
 829.299,244.075, 1.2129e-002,1
 830.103,244.4, 1.2142e-002,1
 830.916,244.725, 1.2156e-002,1
 831.724,245.05, 1.2168e-002,1
 832.52,245.375, 1.2182e-002,1
 833.335,245.7, 1.2195e-002,1
 834.153,246.025, 1.2208e-002,1
 834.983,246.35, 1.2221e-002,1
 835.818,246.675, 1.2234e-002,1
 836.664,247, 1.2247e-002,1
 837.5,247.325, 1.2260e-002,1
 838.353,247.65, 1.2273e-002,1
 839.202,247.975, 1.2287e-002,1
 840.059,248.3, 1.2300e-002,1
 840.924,248.625, 1.2314e-002,1
 841.791,248.95, 1.2327e-002,1
 842.659,249.275, 1.2341e-002,1
 843.523,249.6, 1.2355e-002,1
 844.391,249.925, 1.2368e-002,1
 845.261,250.25, 1.2382e-002,1
 846.118,250.575, 1.2396e-002,1
 846.979,250.9, 1.2410e-002,1
 847.844,251.225, 1.2424e-002,1
 848.712,251.55, 1.2437e-002,1
 849.559,251.875, 1.2451e-002,1
 850.421,252.2, 1.2465e-002,1
 851.285,252.525, 1.2479e-002,1
 852.147,252.85, 1.2492e-002,1
 853.004,253.175, 1.2506e-002,1
 853.856,253.5, 1.2520e-002,1
 854.718,253.825, 1.2534e-002,1
 855.566,254.15, 1.2547e-002,1
 856.422,254.475, 1.2561e-002,1
 857.271,254.8, 1.2574e-002,1
 858.12,255.125, 1.2588e-002,1
 858.967,255.45, 1.2601e-002,1
 859.817,255.775, 1.2615e-002,1
 860.665,256.1, 1.2629e-002,1
 861.525,256.425, 1.2643e-002,1
 862.37,256.75, 1.2656e-002,1
 863.227,257.075, 1.2670e-002,1
 864.075,257.4, 1.2684e-002,1
 864.926,257.725, 1.2697e-002,1
 865.774,258.05, 1.2711e-002,1
 866.627,258.375, 1.2725e-002,1
 867.473,258.7, 1.2739e-002,1
 868.324,259.025, 1.2752e-002,1
 869.174,259.35, 1.2766e-002,1
 870.012,259.675, 1.2780e-002,1
 870.855,260, 1.2793e-002,1
 871.699,260.325, 1.2807e-002,1
 872.534,260.65, 1.2821e-002,1
 873.377,260.975, 1.2834e-002,1
 874.204,261.3, 1.2848e-002,1
 875.001,261.625, 1.2861e-002,1
 875.781,261.95, 1.2874e-002,1
 876.551,262.275, 1.2888e-002,1
 877.292,262.6, 1.2901e-002,1
 878.02,262.925, 1.2914e-002,1
 878.713,263.25, 1.2926e-002,1
 879.389,263.575, 1.2938e-002,1
 880.088,263.9, 1.2949e-002,1
 880.842,264.225, 1.2960e-002,1
 881.61,264.55, 1.2972e-002,1
 882.406,264.875, 1.2984e-002,1
 883.256,265.2, 1.2996e-002,1
 884.132,265.525, 1.3010e-002,1
 885.002,265.85, 1.3023e-002,1
 885.859,266.175, 1.3038e-002,1
 886.685,266.5, 1.3053e-002,1
 887.481,266.825, 1.3067e-002,1
 888.264,267.15, 1.3081e-002,1
 889.025,267.475, 1.3094e-002,1
 889.792,267.8, 1.3107e-002,1
 890.56,268.125, 1.3120e-002,1
 891.337,268.45, 1.3132e-002,1
 892.131,268.775, 1.3144e-002,1
 892.924,269.1, 1.3157e-002,1
 893.728,269.425, 1.3169e-002,1
 894.526,269.75, 1.3182e-002,1
 895.315,270.075, 1.3195e-002,1
 896.135,270.4, 1.3208e-002,1
 896.949,270.725, 1.3221e-002,1
 897.762,271.05, 1.3233e-002,1
 898.568,271.375, 1.3246e-002,1
 899.377,271.7, 1.3259e-002,1
 900.178,272.025, 1.3272e-002,1
 900.97,272.35, 1.3285e-002,1
 901.752,272.675, 1.3297e-002,1
 902.529,273, 1.3309e-002,1
 903.303,273.325, 1.3322e-002,1
 904.081,273.65, 1.3334e-002,1
 904.85,273.975, 1.3347e-002,1
 905.618,274.3, 1.3359e-002,1
 906.37,274.625, 1.3372e-002,1
 907.124,274.95, 1.3384e-002,1
 907.856,275.275, 1.3397e-002,1
 908.585,275.6, 1.3408e-002,1
 909.303,275.925, 1.3421e-002,1
 909.956,276.25, 1.3432e-002,1
 910.556,276.575, 1.3445e-002,1
 911.096,276.9, 1.3455e-002,1
 911.568,277.225, 1.3465e-002,1
 912.052,277.55, 1.3474e-002,1
 912.597,277.875, 1.3482e-002,1
 913.249,278.2, 1.3489e-002,1
 913.999,278.525, 1.3498e-002,1
 914.839,278.85, 1.3509e-002,1
 915.738,279.175, 1.3521e-002,1
 916.628,279.5, 1.3535e-002,1
 917.521,279.825, 1.3549e-002,1
 918.397,280.15, 1.3564e-002,1
 919.268,280.475, 1.3578e-002,1
 920.125,280.8, 1.3592e-002,1
 920.955,281.125, 1.3606e-002,1
 921.757,281.45, 1.3619e-002,1
 922.555,281.775, 1.3633e-002,1
 923.381,282.1, 1.3645e-002,1
 924.239,282.425, 1.3658e-002,1
 925.106,282.75, 1.3671e-002,1
 925.958,283.075, 1.3685e-002,1
 926.757,283.4, 1.3699e-002,1
 927.533,283.725, 1.3712e-002,1
 928.302,284.05, 1.3725e-002,1
 929.083,284.375, 1.3737e-002,1
 929.894,284.7, 1.3749e-002,1
 930.726,285.025, 1.3762e-002,1
 931.562,285.35, 1.3775e-002,1
 932.399,285.675, 1.3788e-002,1
 933.229,286, 1.3801e-002,1
 934.102,286.325, 1.3814e-002,1
 935.007,286.65, 1.3828e-002,1
 935.933,286.975, 1.3842e-002,1
 936.795,287.3, 1.3857e-002,1
 937.621,287.625, 1.3872e-002,1
 938.411,287.95, 1.3886e-002,1
 939.191,288.275, 1.3899e-002,1
 939.982,288.6, 1.3911e-002,1
 940.792,288.925, 1.3924e-002,1
 941.607,289.25, 1.3936e-002,1
 942.447,289.575, 1.3949e-002,1
 943.314,289.9, 1.3962e-002,1
 944.194,290.225, 1.3976e-002,1
 945.08,290.55, 1.3989e-002,1
 945.976,290.875, 1.4003e-002,1
 946.887,291.2, 1.4017e-002,1
 947.815,291.525, 1.4031e-002,1
 948.737,291.85, 1.4046e-002,1
 949.626,292.175, 1.4061e-002,1
 950.5,292.5, 1.4075e-002,1
 951.371,292.825, 1.4089e-002,1
 952.241,293.15, 1.4103e-002,1
 953.12,293.475, 1.4117e-002,1
 954.002,293.8, 1.4131e-002,1
 954.883,294.125, 1.4145e-002,1
 955.744,294.45, 1.4159e-002,1
 956.586,294.775, 1.4174e-002,1
 957.434,295.1, 1.4188e-002,1
 958.284,295.425, 1.4201e-002,1
 959.155,295.75, 1.4214e-002,1
 960.05,296.075, 1.4228e-002,1
 960.951,296.4, 1.4242e-002,1
 961.857,296.725, 1.4257e-002,1
 962.736,297.05, 1.4271e-002,1
 963.602,297.375, 1.4286e-002,1
 964.467,297.7, 1.4300e-002,1
 965.337,298.025, 1.4314e-002,1
 966.214,298.35, 1.4328e-002,1
 967.089,298.675, 1.4342e-002,1
 967.976,299, 1.4356e-002,1
 968.869,299.325, 1.4370e-002,1
 969.783,299.65, 1.4385e-002,1
 970.687,299.975, 1.4399e-002,1
 971.578,300.3, 1.4414e-002,1
 972.44,300.625, 1.4429e-002,1
 973.29,300.95, 1.4443e-002,1
 974.141,301.275, 1.4457e-002,1
 975.009,301.6, 1.4471e-002,1
 975.908,301.925, 1.4484e-002,1
 976.822,302.25, 1.4499e-002,1
 977.72,302.575, 1.4513e-002,1
 978.596,302.9, 1.4528e-002,1
 979.457,303.225, 1.4543e-002,1
 980.312,303.55, 1.4557e-002,1
 981.18,303.875, 1.4572e-002,1
 982.037,304.2, 1.4586e-002,1
 982.891,304.525, 1.4600e-002,1
 983.743,304.85, 1.4616e-002,1
 984.583,305.175, 1.4631e-002,1
 985.418,305.5, 1.4645e-002,1
 986.243,305.825, 1.4659e-002,1
 987.072,306.15, 1.4672e-002,1
 987.926,306.475, 1.4686e-002,1
 988.777,306.8, 1.4700e-002,1
 989.64,307.125, 1.4714e-002,1
 990.501,307.45, 1.4727e-002,1
 991.367,307.775, 1.4742e-002,1
 992.229,308.1, 1.4756e-002,1
 993.106,308.425, 1.4770e-002,1
 993.978,308.75, 1.4784e-002,1
 994.861,309.075, 1.4797e-002,1
 995.749,309.4, 1.4812e-002,1
 996.649,309.725, 1.4826e-002,1
 997.541,310.05, 1.4840e-002,1
 998.418,310.375, 1.4855e-002,1
 999.32,310.7, 1.4869e-002,1
1000.21,311.025, 1.4884e-002,1
1001.09,311.35, 1.4898e-002,1
1001.98,311.675, 1.4912e-002,1
1002.87,312, 1.4927e-002,1
1003.77,312.325, 1.4941e-002,1
1004.65,312.65, 1.4955e-002,1
1005.53,312.975, 1.4970e-002,1
1006.41,313.3, 1.4984e-002,1
1007.28,313.625, 1.4998e-002,1
1008.15,313.95, 1.5012e-002,1
1009.02,314.275, 1.5026e-002,1
1009.88,314.6, 1.5040e-002,1
1010.74,314.925, 1.5054e-002,1
1011.61,315.25, 1.5068e-002,1
1012.46,315.575, 1.5081e-002,1
1013.29,315.9, 1.5095e-002,1
1014.12,316.225, 1.5109e-002,1
1014.95,316.55, 1.5122e-002,1
1015.8,316.875, 1.5135e-002,1
1016.67,317.2, 1.5149e-002,1
1017.58,317.525, 1.5162e-002,1
1018.46,317.85, 1.5176e-002,1
1019.37,318.175, 1.5191e-002,1
1020.26,318.5, 1.5205e-002,1
1021.14,318.825, 1.5219e-002,1
1022.04,319.15, 1.5233e-002,1
1022.93,319.475, 1.5248e-002,1
1023.85,319.8, 1.5262e-002,1
1024.74,320.125, 1.5277e-002,1
1025.6,320.45, 1.5292e-002,1
1026.44,320.775, 1.5306e-002,1
1027.29,321.1, 1.5320e-002,1
1028.14,321.425, 1.5334e-002,1
1029,321.75, 1.5348e-002,1
1029.86,322.075, 1.5362e-002,1
1030.73,322.4, 1.5376e-002,1
1031.6,322.725, 1.5390e-002,1
1032.47,323.05, 1.5405e-002,1
1033.33,323.375, 1.5419e-002,1
1034.23,323.7, 1.5432e-002,1
1035.15,324.025, 1.5447e-002,1
1036.06,324.35, 1.5462e-002,1
1036.95,324.675, 1.5477e-002,1
1037.86,325, 1.5491e-002,1
1038.77,325.325, 1.5506e-002,1
1039.65,325.65, 1.5521e-002,1
1040.52,325.975, 1.5536e-002,1
1041.4,326.3, 1.5550e-002,1
1042.26,326.625, 1.5564e-002,1
1043.15,326.95, 1.5578e-002,1
1044.04,327.275, 1.5593e-002,1
1044.92,327.6, 1.5607e-002,1
1045.81,327.925, 1.5621e-002,1
1046.69,328.25, 1.5636e-002,1
1047.56,328.575, 1.5650e-002,1
1048.44,328.9, 1.5664e-002,1
1049.33,329.225, 1.5679e-002,1
1050.21,329.55, 1.5693e-002,1
1051.07,329.875, 1.5707e-002,1
1051.94,330.2, 1.5721e-002,1
1052.83,330.525, 1.5736e-002,1
1053.72,330.85, 1.5750e-002,1
1054.62,331.175, 1.5764e-002,1
1055.51,331.5, 1.5778e-002,1
1056.4,331.825, 1.5793e-002,1
1057.28,332.15, 1.5808e-002,1
1058.16,332.475, 1.5822e-002,1
1059.02,332.8, 1.5836e-002,1
1059.89,333.125, 1.5850e-002,1
1060.74,333.45, 1.5865e-002,1
1061.61,333.775, 1.5878e-002,1
1062.46,334.1, 1.5892e-002,1
1063.33,334.425, 1.5906e-002,1
1064.16,334.75, 1.5921e-002,1
1065.01,335.075, 1.5935e-002,1
1065.85,335.4, 1.5947e-002,1
1066.75,335.725, 1.5961e-002,1
1067.64,336.05, 1.5976e-002,1
1068.56,336.375, 1.5990e-002,1
1069.46,336.7, 1.6005e-002,1
1070.33,337.025, 1.6020e-002,1
1071.19,337.35, 1.6035e-002,1
1072.02,337.675, 1.6049e-002,1
1072.83,338, 1.6063e-002,1
1073.62,338.325, 1.6077e-002,1
1074.43,338.65, 1.6090e-002,1
1075.31,338.975, 1.6104e-002,1
1076.22,339.3, 1.6118e-002,1
1077.13,339.625, 1.6133e-002,1
1078.02,339.95, 1.6148e-002,1
1078.93,340.275, 1.6162e-002,1
1079.83,340.6, 1.6177e-002,1
1080.72,340.925, 1.6192e-002,1
1081.59,341.25, 1.6207e-002,1
1082.43,341.575, 1.6221e-002,1
1083.26,341.9, 1.6235e-002,1
1084.14,342.225, 1.6249e-002,1
1085.06,342.55, 1.6263e-002,1
1085.97,342.875, 1.6278e-002,1
1086.89,343.2, 1.6293e-002,1
1087.75,343.525, 1.6308e-002,1
1088.65,343.85, 1.6322e-002,1
1089.56,344.175, 1.6337e-002,1
1090.48,344.5, 1.6352e-002,1
1091.39,344.825, 1.6366e-002,1
1092.29,345.15, 1.6382e-002,1
1093.17,345.475, 1.6396e-002,1
1094.07,345.8, 1.6410e-002,1
1094.95,346.125, 1.6425e-002,1
1095.84,346.45, 1.6439e-002,1
1096.74,346.775, 1.6454e-002,1
1097.62,347.1, 1.6469e-002,1
1098.5,347.425, 1.6483e-002,1
1099.38,347.75, 1.6498e-002,1
1100.23,348.075, 1.6512e-002,1
1101.07,348.4, 1.6526e-002,1
1101.9,348.725, 1.6540e-002,1
1102.69,349.05, 1.6553e-002,1
1103.53,349.375, 1.6565e-002,1
1104.38,349.7, 1.6579e-002,1
1105.24,350.025, 1.6593e-002,1
1106.04,350.35, 1.6607e-002,1
1106.83,350.675, 1.6620e-002,1
1107.66,351, 1.6633e-002,1
1108.5,351.325, 1.6647e-002,1
1109.3,351.65, 1.6660e-002,1
1110.14,351.975, 1.6674e-002,1
1110.98,352.3, 1.6688e-002,1
1111.98,352.625, 1.6700e-002,1
1113.09,352.95, 1.6715e-002,1
1114.05,353.275, 1.6734e-002,1
1114.99,353.6, 1.6750e-002,1
1115.96,353.925, 1.6765e-002,1
1116.9,354.25, 1.6781e-002,1
1117.62,354.575, 1.6798e-002,1
1118.27,354.9, 1.6811e-002,1
1118.86,355.225, 1.6822e-002,1
1119.57,355.55, 1.6831e-002,1
1120.46,355.875, 1.6842e-002,1
1121.47,356.2, 1.6856e-002,1
1122.47,356.525, 1.6872e-002,1
1123.49,356.85, 1.6887e-002,1
1124.46,357.175, 1.6904e-002,1
1125.45,357.5, 1.6920e-002,1
1126.48,357.825, 1.6935e-002,1
1127.47,358.15, 1.6952e-002,1
1128.42,358.475, 1.6969e-002,1
1129.36,358.8, 1.6984e-002,1
1130.29,359.125, 1.7000e-002,1
1131.2,359.45, 1.7014e-002,1
1132.1,359.775, 1.7029e-002,1
1133,360.1, 1.7043e-002,1
1133.9,360.425, 1.7058e-002,1
1134.82,360.75, 1.7073e-002,1
1135.73,361.075, 1.7087e-002,1
1136.65,361.4, 1.7101e-002,1
1137.58,361.725, 1.7117e-002,1
1138.53,362.05, 1.7131e-002,1
1139.44,362.375, 1.7147e-002,1
1140.32,362.7, 1.7162e-002,1
1141.21,363.025, 1.7175e-002,1
1142.1,363.35, 1.7191e-002,1
1142.99,363.675, 1.7204e-002,1
1143.93,364, 1.7218e-002,1
1144.87,364.325, 1.7232e-002,1
1145.79,364.65, 1.7247e-002,1
1146.7,364.975, 1.7262e-002,1
1147.55,365.3, 1.7276e-002,1
1148.47,365.625, 1.7289e-002,1
1149.51,365.95, 1.7301e-002,1
1150.73,366.275, 1.7318e-002,1
1151.89,366.6, 1.7337e-002,1
1152.99,366.925, 1.7355e-002,1
1153.93,367.25, 1.7373e-002,1
1154.78,367.575, 1.7389e-002,1
1155.61,367.9, 1.7403e-002,1
1156.41,368.225, 1.7416e-002,1
1157.23,368.55, 1.7429e-002,1
1158.06,368.875, 1.7442e-002,1
1158.94,369.2, 1.7455e-002,1
1159.84,369.525, 1.7467e-002,1
1160.76,369.85, 1.7482e-002,1
1161.7,370.175, 1.7495e-002,1
1162.61,370.5, 1.7510e-002,1
1163.35,370.825, 1.7526e-002,1
1164.08,371.15, 1.7537e-002,1
1164.88,371.475, 1.7549e-002,1
1165.76,371.8, 1.7560e-002,1
1166.67,372.125, 1.7575e-002,1
1167.6,372.45, 1.7588e-002,1
1168.54,372.775, 1.7602e-002,1
1169.48,373.1, 1.7616e-002,1
1170.42,373.425, 1.7631e-002,1
1171.33,373.75, 1.7646e-002,1
1172.19,374.075, 1.7660e-002,1
1173.05,374.4, 1.7673e-002,1
1173.95,374.725, 1.7685e-002,1
1174.88,375.05, 1.7698e-002,1
1175.83,375.375, 1.7715e-002,1
1176.78,375.7, 1.7729e-002,1
1177.69,376.025, 1.7742e-002,1
1178.59,376.35, 1.7756e-002,1
1179.45,376.675, 1.7771e-002,1
1180.34,377, 1.7784e-002,1
1181.19,377.325, 1.7798e-002,1
1182.06,377.65, 1.7811e-002,1
1182.94,377.975, 1.7823e-002,1
1183.84,378.3, 1.7837e-002,1
1184.8,378.625, 1.7849e-002,1
1185.78,378.95, 1.7863e-002,1
1186.77,379.275, 1.7879e-002,1
1187.7,379.6, 1.7894e-002,1
1188.61,379.925, 1.7907e-002,1
1189.51,380.25, 1.7922e-002,1
1190.39,380.575, 1.7937e-002,1
1191.31,380.9, 1.7952e-002,1
1192.22,381.225, 1.7964e-002,1
1193.24,381.55, 1.7977e-002,1
1194.51,381.875, 1.7990e-002,1
1196.05,382.2, 1.8009e-002,1
1197.61,382.525, 1.8032e-002,1
1198.99,382.85, 1.8056e-002,1
1200.14,383.175, 1.8078e-002,1
1201.11,383.5, 1.8096e-002,1
1201.98,383.825, 1.8111e-002,1
1202.8,384.15, 1.8123e-002,1
1203.63,384.475, 1.8135e-002,1
1204.46,384.8, 1.8149e-002,1
1205.24,385.125, 1.8161e-002,1
1206,385.45, 1.8173e-002,1
1206.8,385.775, 1.8185e-002,1
1207.57,386.1, 1.8197e-002,1
1208.32,386.425, 1.8209e-002,1
1209.07,386.75, 1.8220e-002,1
1209.81,387.075, 1.8233e-002,1
1210.58,387.4, 1.8244e-002,1
1211.4,387.725, 1.8257e-002,1
1212.22,388.05, 1.8269e-002,1
1213.05,388.375, 1.8282e-002,1
1213.91,388.7, 1.8295e-002,1
1214.76,389.025, 1.8308e-002,1
1215.62,389.35, 1.8322e-002,1
1216.45,389.675, 1.8335e-002,1
1217.28,390, 1.8347e-002,1
1218.04,390.325, 1.8361e-002,1
1218.7,390.65, 1.8373e-002,1
1219.41,390.975, 1.8384e-002,1
1220.2,391.3, 1.8395e-002,1
1221.1,391.625, 1.8406e-002,1
1222.11,391.95, 1.8421e-002,1
1223.23,392.275, 1.8436e-002,1
1224.36,392.6, 1.8453e-002,1
1225.46,392.925, 1.8471e-002,1
1226.51,393.25, 1.8487e-002,1
1227.57,393.575, 1.8504e-002,1
1228.63,393.9, 1.8520e-002,1
1229.71,394.225, 1.8537e-002,1
1230.79,394.55, 1.8553e-002,1
1231.89,394.875, 1.8570e-002,1
1233,395.2, 1.8588e-002,1
1234.03,395.525, 1.8605e-002,1
1235.02,395.85, 1.8620e-002,1
1235.98,396.175, 1.8638e-002,1
1236.95,396.5, 1.8652e-002,1
1237.99,396.825, 1.8667e-002,1
1238.97,397.15, 1.8684e-002,1
1239.9,397.475, 1.8699e-002,1
1240.88,397.8, 1.8713e-002,1
1241.95,398.125, 1.8728e-002,1
1242.91,398.45, 1.8745e-002,1
1243.71,398.775, 1.8761e-002,1
1244.52,399.1, 1.8774e-002,1
1245.29,399.425, 1.8787e-002,1
1246.09,399.75, 1.8798e-002,1
1246.88,400.075, 1.8811e-002,1
1247.73,400.4, 1.8823e-002,1
1248.59,400.725, 1.8835e-002,1
1249.42,401.05, 1.8849e-002,1
1250.22,401.375, 1.8862e-002,1
1251,401.7, 1.8874e-002,1
1251.95,402.025, 1.8886e-002,1
1253,402.35, 1.8900e-002,1
1254.02,402.675, 1.8916e-002,1
1255.03,403, 1.8932e-002,1
1255.95,403.325, 1.8948e-002,1
1256.85,403.65, 1.8961e-002,1
1257.69,403.975, 1.8975e-002,1
1258.56,404.3, 1.8988e-002,1
1259.46,404.625, 1.9002e-002,1
1260.42,404.95, 1.9016e-002,1
1261.34,405.275, 1.9030e-002,1
1262.19,405.6, 1.9044e-002,1
1263.19,405.925, 1.9056e-002,1
1264.02,406.25, 1.9072e-002,1
1264.82,406.575, 1.9084e-002,1
1265.77,406.9, 1.9097e-002,1
1266.74,407.225, 1.9110e-002,1
1267.65,407.55, 1.9126e-002,1
1268.53,407.875, 1.9140e-002,1
1269.52,408.2, 1.9152e-002,1
1270.62,408.525, 1.9166e-002,1
1271.55,408.85, 1.9183e-002,1
1272.46,409.175, 1.9197e-002,1
1273.33,409.5, 1.9211e-002,1
1274.2,409.825, 1.9225e-002,1
1275.03,410.15, 1.9237e-002,1
1275.89,410.475, 1.9249e-002,1
1276.78,410.8, 1.9262e-002,1
1277.67,411.125, 1.9275e-002,1
1278.59,411.45, 1.9288e-002,1
1279.51,411.775, 1.9301e-002,1
1280.5,412.1, 1.9316e-002,1
1281.51,412.425, 1.9331e-002,1
1282.6,412.75, 1.9346e-002,1
1283.64,413.075, 1.9362e-002,1
1284.55,413.4, 1.9379e-002,1
1285.49,413.725, 1.9391e-002,1
1286.47,414.05, 1.9407e-002,1
1287.35,414.375, 1.9422e-002,1
1288.27,414.7, 1.9435e-002,1
1289.2,415.025, 1.9449e-002,1
1290.14,415.35, 1.9463e-002,1
1291.13,415.675, 1.9477e-002,1
1292.07,416, 1.9492e-002,1
1292.98,416.325, 1.9507e-002,1
1293.97,416.65, 1.9520e-002,1
1294.95,416.975, 1.9536e-002,1
1295.91,417.3, 1.9550e-002,1
1296.83,417.625, 1.9565e-002,1
1297.76,417.95, 1.9579e-002,1
1298.71,418.275, 1.9593e-002,1
1299.59,418.6, 1.9607e-002,1
1300.49,418.925, 1.9620e-002,1
1301.38,419.25, 1.9634e-002,1
1302.3,419.575, 1.9647e-002,1
1303.22,419.9, 1.9661e-002,1
1304.12,420.225, 1.9675e-002,1
1305,420.55, 1.9688e-002,1
1305.97,420.875, 1.9700e-002,1
1306.96,421.2, 1.9715e-002,1
1307.91,421.525, 1.9731e-002,1
1308.84,421.85, 1.9745e-002,1
1309.72,422.175, 1.9758e-002,1
1310.58,422.5, 1.9772e-002,1
1311.45,422.825, 1.9785e-002,1
1312.36,423.15, 1.9797e-002,1
1313.28,423.475, 1.9810e-002,1
1314.2,423.8, 1.9825e-002,1
1315.08,424.125, 1.9838e-002,1
1315.93,424.45, 1.9851e-002,1
1316.8,424.775, 1.9863e-002,1
1317.73,425.1, 1.9875e-002,1
1318.64,425.425, 1.9889e-002,1
1319.52,425.75, 1.9902e-002,1
1320.4,426.075, 1.9914e-002,1
1321.3,426.4, 1.9928e-002,1
1322.21,426.725, 1.9940e-002,1
1323.13,427.05, 1.9954e-002,1
1324.07,427.375, 1.9969e-002,1
1325.01,427.7, 1.9983e-002,1
1325.97,428.025, 1.9997e-002,1
1326.94,428.35, 2.0013e-002,1
1327.88,428.675, 2.0028e-002,1
1328.84,429, 2.0043e-002,1
1329.8,429.325, 2.0058e-002,1
1330.74,429.65, 2.0073e-002,1
1331.67,429.975, 2.0088e-002,1
1332.61,430.3, 2.0103e-002,1
1333.56,430.625, 2.0118e-002,1
1334.5,430.95, 2.0133e-002,1
1335.4,431.275, 2.0149e-002,1
1336.32,431.6, 2.0163e-002,1
1337.21,431.925, 2.0179e-002,1
1338.06,432.25, 2.0193e-002,1
1338.88,432.575, 2.0207e-002,1
1339.72,432.9, 2.0221e-002,1
1340.55,433.225, 2.0235e-002,1
1341.39,433.55, 2.0248e-002,1
1342.27,433.875, 2.0263e-002,1
1343.25,434.2, 2.0277e-002,1
1344.27,434.525, 2.0293e-002,1
1345.25,434.85, 2.0311e-002,1
1346.17,435.175, 2.0327e-002,1
1347.05,435.5, 2.0342e-002,1
1347.94,435.825, 2.0358e-002,1
1348.8,436.15, 2.0372e-002,1
1349.74,436.475, 2.0386e-002,1
1350.56,436.8, 2.0402e-002,1
1351.43,437.125, 2.0416e-002,1
1352.36,437.45, 2.0430e-002,1
1353.31,437.775, 2.0445e-002,1
1354.28,438.1, 2.0461e-002,1
1355.3,438.425, 2.0477e-002,1
1356.34,438.75, 2.0495e-002,1
1357.27,439.075, 2.0511e-002,1
1358.27,439.4, 2.0526e-002,1
1359.34,439.725, 2.0544e-002,1
1360.34,440.05, 2.0561e-002,1
1361.28,440.375, 2.0579e-002,1
1362.05,440.7, 2.0595e-002,1
1362.97,441.025, 2.0607e-002,1
1363.97,441.35, 2.0623e-002,1
1364.89,441.675, 2.0639e-002,1
1365.78,442, 2.0655e-002,1
1366.8,442.325, 2.0670e-002,1
1367.88,442.65, 2.0687e-002,1
1368.8,442.975, 2.0706e-002,1
1369.68,443.288, 2.0720e-002,2
1370.11,443.438, 2.0727e-002,2
1370.19,443.588, 2.0739e-002,2
1369.66,443.738, 2.0753e-002,2
1368.51,443.888, 2.0759e-002,2
1366.72,444.038, 2.0755e-002,2
1364.37,444.188, 2.0743e-002,2
1361.54,444.338, 2.0722e-002,2
1358.4,444.488, 2.0692e-002,2
1355.11,444.638, 2.0654e-002,2
1351.72,444.788, 2.0611e-002,2
1348.24,444.938, 2.0565e-002,2
1344.68,445.088, 2.0517e-002,2
1341.1,445.238, 2.0467e-002,2
1337.51,445.388, 2.0415e-002,2
1333.93,445.538, 2.0362e-002,2
1330.36,445.688, 2.0310e-002,2
1326.77,445.838, 2.0257e-002,2
1323.22,445.988, 2.0205e-002,2
1319.65,446.138, 2.0151e-002,2
1316.14,446.288, 2.0098e-002,2
1312.64,446.438, 2.0045e-002,2
1309.16,446.588, 1.9992e-002,2
1305.67,446.738, 1.9940e-002,2
1302.19,446.888, 1.9888e-002,2
1298.71,447.038, 1.9835e-002,2
1295.24,447.188, 1.9783e-002,2
1291.76,447.338, 1.9730e-002,2
1288.26,447.488, 1.9678e-002,2
1284.75,447.638, 1.9625e-002,2
1281.22,447.788, 1.9572e-002,2
1277.7,447.938, 1.9519e-002,2
1274.15,448.088, 1.9465e-002,2
1270.6,448.238, 1.9411e-002,2
1267.05,448.388, 1.9357e-002,2
1263.44,448.538, 1.9303e-002,2
1259.86,448.688, 1.9249e-002,2
1256.25,448.838, 1.9194e-002,2
1252.66,448.988, 1.9139e-002,2
1249.06,449.138, 1.9084e-002,2
1245.45,449.288, 1.9028e-002,2
1241.87,449.438, 1.8973e-002,2
1238.29,449.588, 1.8917e-002,2
1234.7,449.738, 1.8861e-002,2
1231.12,449.888, 1.8805e-002,2
1227.55,450.038, 1.8750e-002,2
1223.97,450.188, 1.8694e-002,2
1220.4,450.338, 1.8639e-002,2
1216.82,450.488, 1.8583e-002,2
1213.23,450.638, 1.8528e-002,2
1209.64,450.788, 1.8472e-002,2
1206.05,450.938, 1.8416e-002,2
1202.47,451.088, 1.8361e-002,2
1198.87,451.238, 1.8305e-002,2
1195.28,451.388, 1.8249e-002,2
1191.69,451.538, 1.8193e-002,2
1188.11,451.688, 1.8137e-002,2
1184.52,451.838, 1.8080e-002,2
1180.94,451.988, 1.8024e-002,2
1177.38,452.138, 1.7967e-002,2
1173.87,452.288, 1.7912e-002,2
1170.25,452.438, 1.7855e-002,2
1166.7,452.588, 1.7799e-002,2
1163.15,452.738, 1.7743e-002,2
1159.6,452.888, 1.7687e-002,2
1156.07,453.038, 1.7632e-002,2
1152.55,453.188, 1.7576e-002,2
1149,453.338, 1.7520e-002,2
1145.49,453.488, 1.7465e-002,2
1141.95,453.638, 1.7409e-002,2
1138.43,453.788, 1.7353e-002,2
1134.9,453.938, 1.7298e-002,2
1131.37,454.088, 1.7242e-002,2
1127.84,454.238, 1.7186e-002,2
1124.32,454.388, 1.7130e-002,2
1120.79,454.538, 1.7074e-002,2
1117.27,454.688, 1.7018e-002,2
1113.75,454.838, 1.6963e-002,2
1110.23,454.988, 1.6907e-002,2
1106.72,455.138, 1.6852e-002,2
1103.2,455.288, 1.6797e-002,2
1099.67,455.438, 1.6741e-002,2
1096.14,455.588, 1.6686e-002,2
1092.62,455.738, 1.6630e-002,2
1089.08,455.888, 1.6575e-002,2
1085.56,456.038, 1.6519e-002,2
1082.03,456.188, 1.6463e-002,2
1078.49,456.338, 1.6408e-002,2
1074.96,456.488, 1.6351e-002,2
1071.44,456.638, 1.6296e-002,2
1067.91,456.788, 1.6240e-002,2
1064.38,456.938, 1.6184e-002,2
1060.86,457.088, 1.6128e-002,2
1057.33,457.238, 1.6072e-002,2
1053.82,457.388, 1.6017e-002,2
1050.33,457.538, 1.5961e-002,2
1046.82,457.688, 1.5905e-002,2
1043.33,457.838, 1.5850e-002,2
1039.85,457.988, 1.5794e-002,2
1036.37,458.138, 1.5739e-002,2
1032.92,458.288, 1.5684e-002,2
1029.46,458.438, 1.5628e-002,2
1026.03,458.588, 1.5574e-002,2
1022.59,458.738, 1.5519e-002,2
1019.17,458.888, 1.5465e-002,2
1015.76,459.038, 1.5411e-002,2
1012.33,459.188, 1.5356e-002,2
1008.93,459.338, 1.5302e-002,2
1005.52,459.488, 1.5248e-002,2
1002.12,459.638, 1.5194e-002,2
 998.71,459.788, 1.5141e-002,2
 995.318,459.938, 1.5087e-002,2
 991.925,460.088, 1.5033e-002,2
 988.52,460.238, 1.4979e-002,2
 985.125,460.388, 1.4926e-002,2
 981.722,460.538, 1.4872e-002,2
 978.33,460.688, 1.4819e-002,2
 974.938,460.838, 1.4765e-002,2
 971.533,460.988, 1.4712e-002,2
 968.137,461.138, 1.4659e-002,2
 964.755,461.288, 1.4605e-002,2