File: data_backup/14.1mm-083019/fmt001sAr1-11.2mm-081619.csv
#EXPORTTYPE:           ,DATA ALL
#FILE:                 ,fmtl001Arun1.ngb-sle
#FORMAT:               ,NETZSCH5
#FTYPE:                ,ANSI
#IDENTITY:             ,fmt olig base
#DECIMAL:              ,POINT
#SEPARATOR:            ,COMMA
#MTYPE:                ,DIL
#INSTRUMENT:           ,NETZSCH DIL 402C
#PROJECT:              ,feldspar
#DATE/TIME:            ,8/16/2019 10:53:52 AM (UTC-5)
#CORR. FILE:           ,
#TEMPCAL:              ,TCALZERO.TMX
#LABORATORY:           ,Mineral Physics
#OPERATOR:             ,PAG
#REMARK:               ,bare, norm start, for oligoclase fmt base 11.19 by 8.8 mm, probably 001
#SAMPLE:               ,fmt001A
#SAMPLE LENGTH /mm:    ,11.19
#MATERIAL:             ,sapphire stnd
#MEASMODE:             ,Standard Expansion
#PURGE GAS 1:          ,ARGON
#FLOW RATE 1 /(ml/min):,75
#M.RANGE /µm:          ,500
#CORR. CODE:           ,010
#RANGE:                ,20.0°C/3.0(K/min)/990.0°C
#SEGMENT:              ,S1/1
#SEG. 1:               ,20.0°C/3.0(K/min)/990.0°C

##Temp./°C,Time/min,dL/Lo,Alpha/(1/K)
  22.05900,  0.00000, 1.8974e-005,-4.6302e-006
  23.05900,  4.62042, 1.9210e-007,-8.6272e-006
  24.05900,  5.09953,-6.1220e-006,-5.5363e-006
  25.05900,  5.45107,-1.0214e-005,-2.9410e-006
  26.05900,  5.74508,-1.2519e-005,-1.3741e-006
  27.05900,  6.00716,-1.3089e-005, 2.1445e-007
  28.05900,  6.24929,-1.2759e-005, 1.1110e-006
  29.05900,  6.47808,-1.0911e-005, 2.5122e-006
  30.05900,  6.69761,-7.5035e-006, 3.7123e-006
  31.05900,  6.91107,-3.6424e-006, 4.6278e-006
  32.05900,  7.12073, 1.3293e-006, 5.2135e-006
  33.05900,  7.32813, 7.3359e-006, 6.3353e-006
  34.05900,  7.53378, 1.4153e-005, 7.4073e-006
  35.05900,  7.73820, 2.1530e-005, 7.7995e-006
  36.05900,  7.94150, 2.9930e-005, 8.9689e-006
  37.05900,  8.14441, 3.9286e-005, 8.8630e-006
  38.05900,  8.34730, 4.8317e-005, 9.8318e-006
  39.05900,  8.55037, 5.8663e-005, 9.8989e-006
  40.05900,  8.75401, 6.8907e-005, 1.0484e-005
  41.05900,  8.95744, 7.9793e-005, 1.1318e-005
  42.05900,  9.16087, 9.0879e-005, 1.0625e-005
  43.05900,  9.36376, 1.0207e-004, 1.1628e-005
  44.05900,  9.56618, 1.1349e-004, 1.1805e-005
  45.05900,  9.76736, 1.2574e-004, 1.2270e-005
  46.05900,  9.96737, 1.3759e-004, 1.2257e-005
  47.05900, 10.16647, 1.5032e-004, 1.2577e-005
  48.05900, 10.36400, 1.6287e-004, 1.2681e-005
  49.05900, 10.56038, 1.7504e-004, 1.2829e-005
  50.05900, 10.75549, 1.8839e-004, 1.2872e-005
  51.05900, 10.94851, 2.0160e-004, 1.2930e-005
  52.05900, 11.14055, 2.1432e-004, 1.3413e-005
  53.05900, 11.33079, 2.2796e-004, 1.3264e-005
  54.05900, 11.52002, 2.4144e-004, 1.3040e-005
  55.05900, 11.70898, 2.5456e-004, 1.4081e-005
  56.05900, 11.89706, 2.6834e-004, 1.4042e-005
  57.05900, 12.08471, 2.8260e-004, 1.5010e-005
  58.05900, 12.27133, 2.9692e-004, 1.4377e-005
  59.05900, 12.45746, 3.1155e-004, 1.4297e-005
  60.05900, 12.64314, 3.2614e-004, 1.4763e-005
  61.05900, 12.82882, 3.4111e-004, 1.5013e-005
  62.05900, 13.01449, 3.5591e-004, 1.5596e-005
  63.05900, 13.20002, 3.7123e-004, 1.5402e-005
  64.05900, 13.38573, 3.8687e-004, 1.5848e-005
  65.05900, 13.57154, 4.0214e-004, 1.5857e-005
  66.05900, 13.75768, 4.1789e-004, 1.6033e-005
  67.05900, 13.94397, 4.3399e-004, 1.6304e-005
  68.05900, 14.13042, 4.5010e-004, 1.5596e-005
  69.05900, 14.31715, 4.6629e-004, 1.6627e-005
  70.05900, 14.50408, 4.8264e-004, 1.6569e-005
  71.05900, 14.69128, 4.9923e-004, 1.6946e-005
  72.05900, 14.87817, 5.1624e-004, 1.6910e-005
  73.05900, 15.06533, 5.3340e-004, 1.6572e-005
  74.05900, 15.25295, 5.5030e-004, 1.6698e-005
  75.05900, 15.44052, 5.6762e-004, 1.7140e-005
  76.05900, 15.62872, 5.8441e-004, 1.6912e-005
  77.05900, 15.81685, 6.0179e-004, 1.7157e-005
  78.05900, 16.00526, 6.1965e-004, 1.7910e-005
  79.05900, 16.19426, 6.3665e-004, 1.7415e-005
  80.05900, 16.38344, 6.5429e-004, 1.7060e-005
  81.05900, 16.57268, 6.7191e-004, 1.7791e-005
  82.05900, 16.76166, 6.9003e-004, 1.7458e-005
  83.05900, 16.95108, 7.0751e-004, 1.7682e-005
  84.05900, 17.14152, 7.2539e-004, 1.7664e-005
  85.05900, 17.33288, 7.4323e-004, 1.7891e-005
  86.05900, 17.52493, 7.6125e-004, 1.7778e-005
  87.05900, 17.71772, 7.7905e-004, 1.8004e-005
  88.05900, 17.91025, 7.9713e-004, 1.8219e-005
  89.05900, 18.10327, 8.1567e-004, 1.7730e-005
  90.05900, 18.29681, 8.3350e-004, 1.8065e-005
  91.05900, 18.49056, 8.5200e-004, 1.8510e-005
  92.05900, 18.68470, 8.7000e-004, 1.8361e-005
  93.05900, 18.87929, 8.8872e-004, 1.8462e-005
  94.05900, 19.07422, 9.0717e-004, 1.8543e-005
  95.05900, 19.26990, 9.2557e-004, 1.8507e-005
  96.05900, 19.46557, 9.4376e-004, 1.8348e-005
  97.05900, 19.66137, 9.6246e-004, 1.8247e-005
  98.05900, 19.85760, 9.8124e-004, 1.8928e-005
  99.05900, 20.05357, 9.9964e-004, 1.8487e-005
 100.059, 20.25063, 1.0183e-003, 1.9306e-005
 101.059, 20.44844, 1.0375e-003, 1.7638e-005
 102.059, 20.64618, 1.0556e-003, 1.9610e-005
 103.059, 20.84382, 1.0746e-003, 1.8340e-005
 104.059, 21.04159, 1.0934e-003, 1.8785e-005
 105.059, 21.23976, 1.1121e-003, 1.8632e-005
 106.059, 21.43914, 1.1310e-003, 1.8931e-005
 107.059, 21.63957, 1.1495e-003, 1.8962e-005
 108.059, 21.83990, 1.1688e-003, 1.9056e-005
 109.059, 22.04065, 1.1877e-003, 1.8927e-005
 110.059, 22.24122, 1.2067e-003, 1.9071e-005
 111.059, 22.44215, 1.2256e-003, 1.8529e-005
 112.059, 22.64352, 1.2440e-003, 1.9574e-005
 113.059, 22.84485, 1.2628e-003, 1.8803e-005
 114.059, 23.04664, 1.2823e-003, 1.8665e-005
 115.059, 23.24853, 1.3014e-003, 1.8886e-005
 116.059, 23.45080, 1.3203e-003, 1.9107e-005
 117.059, 23.65333, 1.3392e-003, 1.8738e-005
 118.059, 23.85640, 1.3586e-003, 1.8894e-005
 119.059, 24.05983, 1.3776e-003, 1.8817e-005
 120.059, 24.26406, 1.3961e-003, 1.8787e-005
 121.059, 24.46851, 1.4154e-003, 1.9354e-005
 122.059, 24.67289, 1.4352e-003, 1.9387e-005
 123.059, 24.87693, 1.4542e-003, 1.9150e-005
 124.059, 25.08104, 1.4732e-003, 1.9011e-005
 125.059, 25.28556, 1.4921e-003, 1.9396e-005
 126.059, 25.49048, 1.5114e-003, 1.9368e-005
 127.059, 25.69626, 1.5312e-003, 1.9298e-005
 128.059, 25.90246, 1.5498e-003, 1.8991e-005
 129.059, 26.10900, 1.5692e-003, 1.9475e-005
 130.059, 26.31589, 1.5888e-003, 1.8828e-005
 131.059, 26.52276, 1.6076e-003, 1.9166e-005
 132.059, 26.72974, 1.6266e-003, 1.9539e-005
 133.059, 26.93658, 1.6461e-003, 1.9007e-005
 134.059, 27.14374, 1.6656e-003, 1.9048e-005
 135.059, 27.35103, 1.6845e-003, 1.9575e-005
 136.059, 27.55937, 1.7042e-003, 1.9563e-005
 137.059, 27.76778, 1.7234e-003, 1.9339e-005
 138.059, 27.97629, 1.7427e-003, 1.9111e-005
 139.059, 28.18486, 1.7620e-003, 1.9232e-005
 140.059, 28.39317, 1.7814e-003, 1.9331e-005
 141.059, 28.60151, 1.8007e-003, 1.9477e-005
 142.059, 28.81008, 1.8200e-003, 1.8781e-005
 143.059, 29.01952, 1.8389e-003, 1.9287e-005
 144.059, 29.22965, 1.8583e-003, 1.9316e-005
 145.059, 29.43940, 1.8779e-003, 1.9113e-005
 146.059, 29.64800, 1.8971e-003, 1.9279e-005
 147.059, 29.85651, 1.9171e-003, 1.9483e-005
 148.059, 30.06576, 1.9358e-003, 1.9508e-005
 149.059, 30.27627, 1.9549e-003, 1.9792e-005
 150.059, 30.48746, 1.9746e-003, 1.9219e-005
 151.059, 30.69866, 1.9937e-003, 1.9076e-005
 152.059, 30.91020, 2.0129e-003, 1.9340e-005
 153.059, 31.12227, 2.0325e-003, 1.9460e-005
 154.059, 31.33511, 2.0521e-003, 1.9365e-005
 155.059, 31.54799, 2.0717e-003, 1.9601e-005
 156.059, 31.76089, 2.0908e-003, 1.9195e-005
 157.059, 31.97410, 2.1103e-003, 1.9600e-005
 158.059, 32.18783, 2.1300e-003, 1.9167e-005
 159.059, 32.40105, 2.1493e-003, 1.9425e-005
 160.059, 32.61437, 2.1689e-003, 1.9230e-005
 161.059, 32.82753, 2.1883e-003, 1.9541e-005
 162.059, 33.04156, 2.2076e-003, 1.9271e-005
 163.059, 33.25597, 2.2274e-003, 1.9661e-005
 164.059, 33.47072, 2.2472e-003, 1.9543e-005
 165.059, 33.68533, 2.2662e-003, 1.8976e-005
 166.059, 33.89992, 2.2859e-003, 1.9716e-005
 167.059, 34.11470, 2.3055e-003, 1.8850e-005
 168.059, 34.32982, 2.3253e-003, 1.9673e-005
 169.059, 34.54539, 2.3448e-003, 1.9324e-005
 170.059, 34.76190, 2.3643e-003, 1.9112e-005
 171.059, 34.97881, 2.3838e-003, 1.9517e-005
 172.059, 35.19583, 2.4033e-003, 1.9830e-005
 173.059, 35.41305, 2.4236e-003, 1.9895e-005
 174.059, 35.63031, 2.4429e-003, 1.9335e-005
 175.059, 35.84816, 2.4625e-003, 1.9352e-005
 176.059, 36.06652, 2.4822e-003, 1.9411e-005
 177.059, 36.28551, 2.5020e-003, 1.9711e-005
 178.059, 36.50477, 2.5216e-003, 1.9438e-005
 179.059, 36.72459, 2.5415e-003, 2.0421e-005
 180.059, 36.94397, 2.5609e-003, 1.9939e-005
 181.059, 37.16371, 2.5808e-003, 1.9467e-005
 182.059, 37.38328, 2.6002e-003, 1.9846e-005
 183.059, 37.60258, 2.6203e-003, 2.0413e-005
 184.059, 37.82229, 2.6400e-003, 1.9362e-005
 185.059, 38.04218, 2.6596e-003, 1.9562e-005
 186.059, 38.26266, 2.6794e-003, 1.9309e-005
 187.059, 38.48324, 2.6991e-003, 2.0123e-005
 188.059, 38.70362, 2.7190e-003, 2.0348e-005
 189.059, 38.92460, 2.7387e-003, 1.9451e-005
 190.059, 39.14562, 2.7582e-003, 2.0024e-005
 191.059, 39.36775, 2.7781e-003, 1.9712e-005
 192.059, 39.58970, 2.7977e-003, 1.9413e-005
 193.059, 39.81211, 2.8175e-003, 2.0403e-005
 194.059, 40.03422, 2.8371e-003, 1.9199e-005
 195.059, 40.25667, 2.8571e-003, 1.9805e-005
 196.059, 40.47957, 2.8772e-003, 1.9643e-005
 197.059, 40.70288, 2.8967e-003, 1.9977e-005
 198.059, 40.92655, 2.9164e-003, 2.0213e-005
 199.059, 41.15083, 2.9365e-003, 1.9457e-005
 200.059, 41.37519, 2.9559e-003, 2.0074e-005
 201.059, 41.59990, 2.9758e-003, 1.9955e-005
 202.059, 41.82476, 2.9960e-003, 1.9961e-005
 203.059, 42.04950, 3.0156e-003, 1.9935e-005
 204.059, 42.27494, 3.0359e-003, 1.9345e-005
 205.059, 42.50065, 3.0553e-003, 2.0215e-005
 206.059, 42.72643, 3.0751e-003, 1.9473e-005
 207.059, 42.95256, 3.0948e-003, 1.9586e-005
 208.059, 43.17910, 3.1144e-003, 1.9412e-005
 209.059, 43.40592, 3.1347e-003, 2.0073e-005
 210.059, 43.63300, 3.1543e-003, 1.9459e-005
 211.059, 43.86038, 3.1743e-003, 1.9536e-005
 212.059, 44.08832, 3.1937e-003, 1.9466e-005
 213.059, 44.31693, 3.2139e-003, 1.9653e-005
 214.059, 44.54602, 3.2335e-003, 2.0527e-005
 215.059, 44.77554, 3.2538e-003, 1.9796e-005
 216.059, 45.00475, 3.2735e-003, 1.9427e-005
 217.059, 45.23414, 3.2937e-003, 1.9956e-005
 218.059, 45.46378, 3.3134e-003, 2.0040e-005
 219.059, 45.69370, 3.3331e-003, 1.9893e-005
 220.059, 45.92378, 3.3531e-003, 2.0018e-005
 221.059, 46.15396, 3.3733e-003, 1.9900e-005
 222.059, 46.38503, 3.3931e-003, 2.0022e-005
 223.059, 46.61639, 3.4132e-003, 1.9808e-005
 224.059, 46.84801, 3.4330e-003, 1.9407e-005
 225.059, 47.07942, 3.4529e-003, 1.9882e-005
 226.059, 47.31120, 3.4730e-003, 2.0297e-005
 227.059, 47.54306, 3.4929e-003, 1.9429e-005
 228.059, 47.77597, 3.5128e-003, 1.9483e-005
 229.059, 48.00888, 3.5331e-003, 2.0111e-005
 230.059, 48.24271, 3.5528e-003, 2.0509e-005
 231.059, 48.47666, 3.5725e-003, 1.9952e-005
 232.059, 48.71118, 3.5925e-003, 1.9971e-005
 233.059, 48.94482, 3.6128e-003, 1.9723e-005
 234.059, 49.17804, 3.6328e-003, 1.9746e-005
 235.059, 49.41192, 3.6526e-003, 1.9941e-005
 236.059, 49.64682, 3.6727e-003, 1.9995e-005
 237.059, 49.88285, 3.6925e-003, 1.9991e-005
 238.059, 50.11915, 3.7130e-003, 2.0413e-005
 239.059, 50.35602, 3.7323e-003, 1.9961e-005
 240.059, 50.59350, 3.7527e-003, 1.9985e-005
 241.059, 50.83085, 3.7729e-003, 1.9962e-005
 242.059, 51.06784, 3.7932e-003, 1.9782e-005
 243.059, 51.30445, 3.8128e-003, 1.9796e-005
 244.059, 51.54130, 3.8329e-003, 1.9476e-005
 245.059, 51.77860, 3.8530e-003, 2.0132e-005
 246.059, 52.01625, 3.8731e-003, 1.9569e-005
 247.059, 52.25431, 3.8928e-003, 2.0399e-005
 248.059, 52.49285, 3.9126e-003, 2.0065e-005
 249.059, 52.73160, 3.9330e-003, 1.9947e-005
 250.059, 52.97115, 3.9534e-003, 1.9971e-005
 251.059, 53.21157, 3.9734e-003, 2.0103e-005
 252.059, 53.45251, 3.9936e-003, 2.0388e-005
 253.059, 53.69331, 4.0137e-003, 1.9810e-005
 254.059, 53.93333, 4.0337e-003, 1.9607e-005
 255.059, 54.17381, 4.0539e-003, 1.9688e-005
 256.059, 54.41497, 4.0736e-003, 1.9884e-005
 257.059, 54.65692, 4.0938e-003, 2.0176e-005
 258.059, 54.89903, 4.1136e-003, 1.9970e-005
 259.059, 55.14150, 4.1339e-003, 1.9977e-005
 260.059, 55.38407, 4.1542e-003, 2.0270e-005
 261.059, 55.62669, 4.1743e-003, 2.0174e-005
 262.059, 55.86957, 4.1944e-003, 2.0318e-005
 263.059, 56.11298, 4.2146e-003, 2.0173e-005
 264.059, 56.35648, 4.2347e-003, 1.9792e-005
 265.059, 56.60021, 4.2548e-003, 1.9503e-005
 266.059, 56.84435, 4.2753e-003, 2.0221e-005
 267.059, 57.08913, 4.2954e-003, 2.0435e-005
 268.059, 57.33366, 4.3150e-003, 2.0133e-005
 269.059, 57.57823, 4.3355e-003, 1.9791e-005
 270.059, 57.82319, 4.3558e-003, 2.0238e-005
 271.059, 58.06886, 4.3756e-003, 2.0188e-005
 272.059, 58.31527, 4.3958e-003, 2.0224e-005
 273.059, 58.56217, 4.4156e-003, 2.0030e-005
 274.059, 58.80965, 4.4363e-003, 2.0591e-005
 275.059, 59.05753, 4.4566e-003, 2.0348e-005
 276.059, 59.30602, 4.4769e-003, 2.0127e-005
 277.059, 59.55491, 4.4973e-003, 1.9914e-005
 278.059, 59.80404, 4.5174e-003, 2.0291e-005
 279.059, 60.05334, 4.5374e-003, 2.0424e-005
 280.059, 60.30305, 4.5576e-003, 2.0524e-005
 281.059, 60.55301, 4.5782e-003, 2.0123e-005
 282.059, 60.80253, 4.5985e-003, 2.0311e-005
 283.059, 61.05238, 4.6185e-003, 2.0236e-005
 284.059, 61.30282, 4.6387e-003, 2.0365e-005
 285.059, 61.55391, 4.6589e-003, 2.0152e-005
 286.059, 61.80539, 4.6789e-003, 2.0428e-005
 287.059, 62.05674, 4.6990e-003, 2.0049e-005
 288.059, 62.30825, 4.7194e-003, 1.9785e-005
 289.059, 62.55963, 4.7390e-003, 2.0302e-005
 290.059, 62.81150, 4.7597e-003, 1.9379e-005
 291.059, 63.06313, 4.7798e-003, 2.0532e-005
 292.059, 63.31588, 4.8001e-003, 2.0146e-005
 293.059, 63.56931, 4.8198e-003, 2.0383e-005
 294.059, 63.82365, 4.8407e-003, 2.0524e-005
 295.059, 64.07808, 4.8606e-003, 2.0150e-005
 296.059, 64.33295, 4.8809e-003, 2.0449e-005
 297.059, 64.58836, 4.9015e-003, 2.0587e-005
 298.059, 64.84459, 4.9215e-003, 2.0327e-005
 299.059, 65.10158, 4.9415e-003, 1.9856e-005
 300.059, 65.35787, 4.9622e-003, 2.0532e-005
 301.059, 65.61397, 4.9826e-003, 1.9872e-005
 302.059, 65.87012, 5.0029e-003, 2.0458e-005
 303.059, 66.12688, 5.0231e-003, 2.0530e-005
 304.059, 66.38343, 5.0432e-003, 2.0619e-005
 305.059, 66.64067, 5.0638e-003, 1.9794e-005
 306.059, 66.89805, 5.0836e-003, 2.0761e-005
 307.059, 67.15583, 5.1043e-003, 2.0120e-005
 308.059, 67.41387, 5.1245e-003, 2.0632e-005
 309.059, 67.67246, 5.1449e-003, 2.0486e-005
 310.059, 67.93192, 5.1653e-003, 2.0068e-005
 311.059, 68.19136, 5.1854e-003, 2.0509e-005
 312.059, 68.45206, 5.2057e-003, 2.0410e-005
 313.059, 68.71279, 5.2256e-003, 1.9813e-005
 314.059, 68.97356, 5.2465e-003, 2.0396e-005
 315.059, 69.23348, 5.2667e-003, 1.9607e-005
 316.059, 69.49439, 5.2873e-003, 2.0364e-005
 317.059, 69.75616, 5.3071e-003, 2.0779e-005
 318.059, 70.01795, 5.3278e-003, 2.0318e-005
 319.059, 70.27933, 5.3482e-003, 2.0823e-005
 320.059, 70.54044, 5.3684e-003, 2.0181e-005
 321.059, 70.80289, 5.3886e-003, 2.0119e-005
 322.059, 71.06687, 5.4087e-003, 2.0173e-005
 323.059, 71.33121, 5.4290e-003, 2.0395e-005
 324.059, 71.59552, 5.4495e-003, 2.0121e-005
 325.059, 71.85972, 5.4701e-003, 2.0649e-005
 326.059, 72.12414, 5.4908e-003, 2.0698e-005
 327.059, 72.38864, 5.5111e-003, 2.0082e-005
 328.059, 72.65446, 5.5314e-003, 2.0643e-005
 329.059, 72.92147, 5.5519e-003, 2.0008e-005
 330.059, 73.18892, 5.5723e-003, 2.0634e-005
 331.059, 73.45616, 5.5926e-003, 2.0038e-005
 332.059, 73.72283, 5.6132e-003, 2.0648e-005
 333.059, 73.98957, 5.6338e-003, 2.0284e-005
 334.059, 74.25689, 5.6537e-003, 2.0427e-005
 335.059, 74.52485, 5.6746e-003, 2.0965e-005
 336.059, 74.79320, 5.6947e-003, 2.0618e-005
 337.059, 75.06236, 5.7153e-003, 2.0220e-005
 338.059, 75.33230, 5.7354e-003, 2.0864e-005
 339.059, 75.60159, 5.7561e-003, 2.0424e-005
 340.059, 75.87030, 5.7764e-003, 1.9856e-005
 341.059, 76.13905, 5.7971e-003, 1.9876e-005
 342.059, 76.40814, 5.8174e-003, 2.0952e-005
 343.059, 76.67860, 5.8382e-003, 2.0707e-005
 344.059, 76.94994, 5.8582e-003, 1.9866e-005
 345.059, 77.22224, 5.8788e-003, 1.9906e-005
 346.059, 77.49390, 5.8992e-003, 2.0314e-005
 347.059, 77.76580, 5.9194e-003, 2.0499e-005
 348.059, 78.03732, 5.9401e-003, 2.0504e-005
 349.059, 78.30908, 5.9608e-003, 2.0634e-005
 350.059, 78.58143, 5.9811e-003, 2.0586e-005
 351.059, 78.85469, 6.0024e-003, 2.1392e-005
 352.059, 79.12835, 6.0231e-003, 2.0747e-005
 353.059, 79.40177, 6.0442e-003, 2.0752e-005
 354.059, 79.67675, 6.0651e-003, 2.1400e-005
 355.059, 79.95352, 6.0865e-003, 2.0737e-005
 356.059, 80.23153, 6.1080e-003, 2.2019e-005
 357.059, 80.50983, 6.1294e-003, 2.1176e-005
 358.059, 80.78949, 6.1513e-003, 2.1491e-005
 359.059, 81.07042, 6.1726e-003, 2.2140e-005
 360.059, 81.35238, 6.1942e-003, 2.1335e-005
 361.059, 81.63423, 6.2153e-003, 2.1439e-005
 362.059, 81.91585, 6.2363e-003, 2.1056e-005
 363.059, 82.19597, 6.2571e-003, 2.0479e-005
 364.059, 82.47465, 6.2776e-003, 2.0482e-005
 365.059, 82.75177, 6.2973e-003, 1.9649e-005
 366.059, 83.02693, 6.3175e-003, 1.9857e-005
 367.059, 83.29974, 6.3374e-003, 1.9521e-005
 368.059, 83.57055, 6.3568e-003, 1.9094e-005
 369.059, 83.83983, 6.3762e-003, 1.9364e-005
 370.059, 84.10760, 6.3956e-003, 1.9929e-005
 371.059, 84.37369, 6.4151e-003, 1.9166e-005
 372.059, 84.63901, 6.4349e-003, 1.9894e-005
 373.059, 84.90345, 6.4545e-003, 1.9832e-005
 374.059, 85.16712, 6.4742e-003, 1.9789e-005
 375.059, 85.43068, 6.4944e-003, 2.0092e-005
 376.059, 85.69521, 6.5142e-003, 2.0125e-005
 377.059, 85.96102, 6.5345e-003, 2.0543e-005
 378.059, 86.22837, 6.5546e-003, 1.9785e-005
 379.059, 86.49768, 6.5753e-003, 2.0289e-005
 380.059, 86.76919, 6.5956e-003, 2.0955e-005
 381.059, 87.04130, 6.6167e-003, 2.0810e-005
 382.059, 87.31369, 6.6373e-003, 2.0663e-005
 383.059, 87.58763, 6.6582e-003, 2.0771e-005
 384.059, 87.86294, 6.6787e-003, 2.0521e-005
 385.059, 88.13917, 6.6995e-003, 2.0176e-005
 386.059, 88.41680, 6.7202e-003, 2.0325e-005
 387.059, 88.69524, 6.7413e-003, 2.0580e-005
 388.059, 88.97474, 6.7617e-003, 2.0145e-005
 389.059, 89.25502, 6.7821e-003, 2.0724e-005
 390.059, 89.53606, 6.8028e-003, 2.1470e-005
 391.059, 89.81735, 6.8238e-003, 2.0648e-005
 392.059, 90.09945, 6.8441e-003, 2.0661e-005
 393.059, 90.38232, 6.8651e-003, 2.1354e-005
 394.059, 90.66590, 6.8861e-003, 2.0085e-005
 395.059, 90.94990, 6.9066e-003, 2.0723e-005
 396.059, 91.23499, 6.9275e-003, 1.9856e-005
 397.059, 91.52165, 6.9479e-003, 2.0675e-005
 398.059, 91.80972, 6.9689e-003, 2.0396e-005
 399.059, 92.09840, 6.9899e-003, 2.0831e-005
 400.059, 92.38727, 7.0108e-003, 2.0863e-005
 401.059, 92.67662, 7.0318e-003, 2.1536e-005
 402.059, 92.96666, 7.0524e-003, 2.0797e-005
 403.059, 93.25765, 7.0740e-003, 2.0829e-005
 404.059, 93.54927, 7.0946e-003, 2.0659e-005
 405.059, 93.84216, 7.1156e-003, 2.0649e-005
 406.059, 94.13497, 7.1366e-003, 2.1967e-005
 407.059, 94.42758, 7.1580e-003, 2.0960e-005
 408.059, 94.71988, 7.1788e-003, 2.0659e-005
 409.059, 95.01375, 7.1995e-003, 2.0738e-005
 410.059, 95.30825, 7.2204e-003, 2.1339e-005
 411.059, 95.60274, 7.2412e-003, 2.0959e-005
 412.059, 95.89812, 7.2629e-003, 2.0906e-005
 413.059, 96.19438, 7.2836e-003, 2.0804e-005
 414.059, 96.49126, 7.3047e-003, 2.0729e-005
 415.059, 96.78771, 7.3258e-003, 2.1286e-005
 416.059, 97.08488, 7.3462e-003, 2.0668e-005
 417.059, 97.38159, 7.3677e-003, 2.0776e-005
 418.059, 97.67889, 7.3886e-003, 2.1247e-005
 419.059, 97.97725, 7.4095e-003, 2.1191e-005
 420.059, 98.27660, 7.4306e-003, 2.1101e-005
 421.059, 98.57603, 7.4518e-003, 2.0551e-005
 422.059, 98.87529, 7.4730e-003, 2.1265e-005
 423.059, 99.17438, 7.4933e-003, 2.0896e-005
 424.059, 99.47370, 7.5144e-003, 2.0897e-005
 425.059, 99.77281, 7.5352e-003, 2.1013e-005
 426.059,100.073, 7.5565e-003, 2.0122e-005
 427.059,100.374, 7.5769e-003, 2.2116e-005
 428.059,100.675, 7.5984e-003, 2.0878e-005
 429.059,100.978, 7.6195e-003, 2.0947e-005
 430.059,101.28, 7.6402e-003, 1.9982e-005
 431.059,101.582, 7.6619e-003, 2.1049e-005
 432.059,101.884, 7.6825e-003, 2.1396e-005
 433.059,102.187, 7.7038e-003, 2.1264e-005
 434.059,102.492, 7.7248e-003, 2.1289e-005
 435.059,102.796, 7.7458e-003, 2.0819e-005
 436.059,103.1, 7.7666e-003, 2.1249e-005
 437.059,103.404, 7.7881e-003, 2.0631e-005
 438.059,103.708, 7.8087e-003, 2.0398e-005
 439.059,104.012, 7.8296e-003, 2.1246e-005
 440.059,104.315, 7.8509e-003, 2.0618e-005
 441.059,104.619, 7.8720e-003, 2.1156e-005
 442.059,104.922, 7.8929e-003, 2.0650e-005
 443.059,105.227, 7.9136e-003, 2.1228e-005
 444.059,105.533, 7.9354e-003, 2.0244e-005
 445.059,105.839, 7.9566e-003, 2.1511e-005
 446.059,106.146, 7.9779e-003, 2.0992e-005
 447.059,106.453, 7.9991e-003, 2.1202e-005
 448.059,106.762, 8.0204e-003, 2.1514e-005
 449.059,107.071, 8.0418e-003, 2.0966e-005
 450.059,107.38, 8.0625e-003, 2.1556e-005
 451.059,107.688, 8.0840e-003, 2.1098e-005
 452.059,107.997, 8.1049e-003, 2.1740e-005
 453.059,108.306, 8.1263e-003, 2.0476e-005
 454.059,108.614, 8.1470e-003, 2.0938e-005
 455.059,108.922, 8.1687e-003, 2.0892e-005
 456.059,109.231, 8.1893e-003, 2.1861e-005
 457.059,109.54, 8.2108e-003, 2.1540e-005
 458.059,109.85, 8.2318e-003, 2.1266e-005
 459.059,110.159, 8.2534e-003, 2.1778e-005
 460.059,110.469, 8.2744e-003, 2.1570e-005
 461.059,110.78, 8.2958e-003, 2.1571e-005
 462.059,111.092, 8.3171e-003, 2.1858e-005
 463.059,111.405, 8.3386e-003, 2.0987e-005
 464.059,111.718, 8.3597e-003, 2.1331e-005
 465.059,112.031, 8.3817e-003, 2.2056e-005
 466.059,112.343, 8.4027e-003, 2.1478e-005
 467.059,112.656, 8.4240e-003, 2.1472e-005
 468.059,112.968, 8.4453e-003, 2.0931e-005
 469.059,113.281, 8.4667e-003, 2.1448e-005
 470.059,113.594, 8.4881e-003, 2.1757e-005
 471.059,113.907, 8.5092e-003, 2.2112e-005
 472.059,114.221, 8.5305e-003, 2.1425e-005
 473.059,114.535, 8.5525e-003, 2.1250e-005
 474.059,114.85, 8.5740e-003, 2.1920e-005
 475.059,115.163, 8.5958e-003, 2.2097e-005
 476.059,115.478, 8.6167e-003, 2.1685e-005
 477.059,115.795, 8.6383e-003, 2.1925e-005
 478.059,116.112, 8.6601e-003, 2.1503e-005
 479.059,116.43, 8.6812e-003, 2.0842e-005
 480.059,116.747, 8.7029e-003, 2.1200e-005
 481.059,117.064, 8.7241e-003, 2.1045e-005
 482.059,117.381, 8.7458e-003, 2.1304e-005
 483.059,117.699, 8.7675e-003, 2.1186e-005
 484.059,118.018, 8.7887e-003, 2.1476e-005
 485.059,118.336, 8.8103e-003, 2.1704e-005
 486.059,118.655, 8.8318e-003, 2.1645e-005
 487.059,118.974, 8.8541e-003, 2.2035e-005
 488.059,119.293, 8.8750e-003, 2.0911e-005
 489.059,119.613, 8.8963e-003, 2.1233e-005
 490.059,119.934, 8.9179e-003, 2.1358e-005
 491.059,120.255, 8.9396e-003, 2.0087e-005
 492.059,120.577, 8.9612e-003, 2.1910e-005
 493.059,120.899, 8.9828e-003, 2.1385e-005
 494.059,121.222, 9.0046e-003, 2.1051e-005
 495.059,121.545, 9.0260e-003, 2.1121e-005
 496.059,121.867, 9.0480e-003, 2.2186e-005
 497.059,122.19, 9.0695e-003, 2.1617e-005
 498.059,122.514, 9.0912e-003, 2.1616e-005
 499.059,122.838, 9.1127e-003, 2.1872e-005
 500.059,123.162, 9.1342e-003, 2.1647e-005
 501.059,123.484, 9.1559e-003, 2.1144e-005
 502.059,123.807, 9.1775e-003, 2.1454e-005
 503.059,124.13, 9.1988e-003, 2.1219e-005
 504.059,124.454, 9.2210e-003, 2.0492e-005
 505.059,124.779, 9.2427e-003, 2.1609e-005
 506.059,125.105, 9.2643e-003, 2.1609e-005
 507.059,125.432, 9.2861e-003, 2.1724e-005
 508.059,125.758, 9.3081e-003, 2.2275e-005
 509.059,126.085, 9.3299e-003, 2.2172e-005
 510.059,126.412, 9.3520e-003, 2.2698e-005
 511.059,126.74, 9.3740e-003, 2.2423e-005
 512.059,127.071, 9.3972e-003, 2.2646e-005
 513.059,127.401, 9.4194e-003, 2.2849e-005
 514.059,127.732, 9.4420e-003, 2.3541e-005
 515.059,128.065, 9.4650e-003, 2.2804e-005
 516.059,128.4, 9.4880e-003, 2.2922e-005
 517.059,128.736, 9.5105e-003, 2.3044e-005
 518.059,129.073, 9.5332e-003, 2.2218e-005
 519.059,129.408, 9.5556e-003, 2.2027e-005
 520.059,129.74, 9.5770e-003, 2.2149e-005
 521.059,130.068, 9.5983e-003, 2.1107e-005
 522.059,130.392, 9.6201e-003, 2.0320e-005
 523.059,130.713, 9.6406e-003, 2.0650e-005
 524.059,131.032, 9.6616e-003, 2.1475e-005
 525.059,131.35, 9.6825e-003, 2.2195e-005
 526.059,131.666, 9.7042e-003, 2.1067e-005
 527.059,131.981, 9.7251e-003, 2.2082e-005
 528.059,132.298, 9.7470e-003, 2.1925e-005
 529.059,132.615, 9.7686e-003, 2.1252e-005
 530.059,132.934, 9.7904e-003, 2.1961e-005
 531.059,133.255, 9.8132e-003, 2.1818e-005
 532.059,133.578, 9.8349e-003, 2.2144e-005
 533.059,133.903, 9.8571e-003, 2.1934e-005
 534.059,134.228, 9.8788e-003, 2.2708e-005
 535.059,134.554, 9.9014e-003, 2.2131e-005
 536.059,134.881, 9.9234e-003, 2.2159e-005
 537.059,135.209, 9.9458e-003, 2.2781e-005
 538.059,135.538, 9.9679e-003, 2.2696e-005
 539.059,135.867, 9.9902e-003, 2.2474e-005
 540.059,136.198, 1.0013e-002, 2.2228e-005
 541.059,136.53, 1.0035e-002, 2.4000e-005
 542.059,136.862, 1.0057e-002, 2.2481e-005
 543.059,137.196, 1.0079e-002, 2.2992e-005
 544.059,137.529, 1.0102e-002, 2.3172e-005
 545.059,137.863, 1.0124e-002, 2.2148e-005
 546.059,138.199, 1.0147e-002, 2.3621e-005
 547.059,138.537, 1.0169e-002, 2.1939e-005
 548.059,138.876, 1.0192e-002, 2.2528e-005
 549.059,139.215, 1.0215e-002, 2.2857e-005
 550.059,139.554, 1.0237e-002, 2.2203e-005
 551.059,139.893, 1.0260e-002, 2.1956e-005
 552.059,140.234, 1.0282e-002, 2.2442e-005
 553.059,140.575, 1.0305e-002, 2.2064e-005
 554.059,140.917, 1.0327e-002, 2.2469e-005
 555.059,141.257, 1.0350e-002, 2.2167e-005
 556.059,141.597, 1.0372e-002, 2.2355e-005
 557.059,141.938, 1.0395e-002, 2.2185e-005
 558.059,142.278, 1.0417e-002, 2.2674e-005
 559.059,142.618, 1.0439e-002, 2.3305e-005
 560.059,142.961, 1.0462e-002, 2.2612e-005
 561.059,143.305, 1.0485e-002, 2.3350e-005
 562.059,143.647, 1.0508e-002, 2.2987e-005
 563.059,143.99, 1.0530e-002, 2.1752e-005
 564.059,144.334, 1.0553e-002, 2.2901e-005
 565.059,144.678, 1.0575e-002, 2.2572e-005
 566.059,145.022, 1.0598e-002, 2.1851e-005
 567.059,145.367, 1.0621e-002, 2.2577e-005
 568.059,145.712, 1.0643e-002, 2.2776e-005
 569.059,146.058, 1.0666e-002, 2.2466e-005
 570.059,146.403, 1.0688e-002, 2.2427e-005
 571.059,146.748, 1.0711e-002, 2.2497e-005
 572.059,147.093, 1.0733e-002, 2.3623e-005
 573.059,147.437, 1.0756e-002, 2.2298e-005
 574.059,147.782, 1.0778e-002, 2.3102e-005
 575.059,148.127, 1.0801e-002, 2.3745e-005
 576.059,148.474, 1.0824e-002, 2.1990e-005
 577.059,148.821, 1.0846e-002, 2.2446e-005
 578.059,149.166, 1.0870e-002, 2.2300e-005
 579.059,149.512, 1.0892e-002, 2.2849e-005
 580.059,149.86, 1.0915e-002, 2.2534e-005
 581.059,150.209, 1.0937e-002, 2.3094e-005
 582.059,150.557, 1.0960e-002, 2.2945e-005
 583.059,150.905, 1.0982e-002, 2.3378e-005
 584.059,151.252, 1.1005e-002, 2.2183e-005
 585.059,151.598, 1.1028e-002, 2.3535e-005
 586.059,151.946, 1.1051e-002, 2.2678e-005
 587.059,152.294, 1.1073e-002, 2.2690e-005
 588.059,152.642, 1.1096e-002, 2.2771e-005
 589.059,152.989, 1.1118e-002, 2.1742e-005
 590.059,153.338, 1.1140e-002, 2.2119e-005
 591.059,153.688, 1.1163e-002, 2.1984e-005
 592.059,154.037, 1.1185e-002, 2.1621e-005
 593.059,154.385, 1.1208e-002, 2.3457e-005
 594.059,154.733, 1.1231e-002, 2.2398e-005
 595.059,155.081, 1.1254e-002, 2.2470e-005
 596.059,155.431, 1.1277e-002, 2.2819e-005
 597.059,155.782, 1.1299e-002, 2.2644e-005
 598.059,156.134, 1.1322e-002, 2.3054e-005
 599.059,156.485, 1.1345e-002, 2.3437e-005
 600.059,156.837, 1.1368e-002, 2.2162e-005
 601.059,157.19, 1.1390e-002, 2.1783e-005
 602.059,157.543, 1.1414e-002, 2.2768e-005
 603.059,157.894, 1.1436e-002, 2.3342e-005
 604.059,158.245, 1.1458e-002, 2.3366e-005
 605.059,158.597, 1.1481e-002, 2.2638e-005
 606.059,158.949, 1.1504e-002, 2.2858e-005
 607.059,159.301, 1.1527e-002, 2.2986e-005
 608.059,159.655, 1.1549e-002, 2.1976e-005
 609.059,160.008, 1.1572e-002, 2.2183e-005
 610.059,160.362, 1.1594e-002, 2.3084e-005
 611.059,160.715, 1.1617e-002, 2.2879e-005
 612.059,161.07, 1.1640e-002, 2.4153e-005
 613.059,161.424, 1.1663e-002, 2.2234e-005
 614.059,161.776, 1.1686e-002, 2.1807e-005
 615.059,162.129, 1.1708e-002, 2.2520e-005
 616.059,162.482, 1.1731e-002, 2.2922e-005
 617.059,162.836, 1.1754e-002, 2.4528e-005
 618.059,163.192, 1.1778e-002, 2.4179e-005
 619.059,163.552, 1.1801e-002, 2.2959e-005
 620.059,163.913, 1.1825e-002, 2.3614e-005
 621.059,164.275, 1.1848e-002, 2.3920e-005
 622.059,164.641, 1.1872e-002, 2.4206e-005
 623.059,165.007, 1.1895e-002, 2.2768e-005
 624.059,165.373, 1.1919e-002, 2.3020e-005
 625.059,165.739, 1.1942e-002, 2.3498e-005
 626.059,166.101, 1.1964e-002, 2.1303e-005
 627.059,166.46, 1.1985e-002, 2.2389e-005
 628.059,166.816, 1.2009e-002, 2.2024e-005
 629.059,167.168, 1.2030e-002, 2.2351e-005
 630.059,167.517, 1.2052e-002, 2.3080e-005
 631.059,167.863, 1.2074e-002, 2.2036e-005
 632.059,168.208, 1.2096e-002, 2.2225e-005
 633.059,168.553, 1.2118e-002, 2.4724e-005
 634.059,168.901, 1.2140e-002, 2.1406e-005
 635.059,169.25, 1.2162e-002, 2.1764e-005
 636.059,169.599, 1.2186e-002, 2.2160e-005
 637.059,169.95, 1.2207e-002, 2.1855e-005
 638.059,170.3, 1.2231e-002, 2.3870e-005
 639.059,170.649, 1.2252e-002, 2.3860e-005
 640.059,171.001, 1.2276e-002, 2.3483e-005
 641.059,171.354, 1.2298e-002, 2.2704e-005
 642.059,171.708, 1.2321e-002, 2.3673e-005
 643.059,172.064, 1.2343e-002, 2.2361e-005
 644.059,172.42, 1.2366e-002, 2.2172e-005
 645.059,172.777, 1.2389e-002, 2.2847e-005
 646.059,173.135, 1.2411e-002, 2.2881e-005
 647.059,173.494, 1.2434e-002, 2.2561e-005
 648.059,173.854, 1.2456e-002, 2.0762e-005
 649.059,174.215, 1.2479e-002, 2.3443e-005
 650.059,174.576, 1.2501e-002, 2.2782e-005
 651.059,174.938, 1.2523e-002, 2.3924e-005
 652.059,175.301, 1.2546e-002, 2.3511e-005
 653.059,175.665, 1.2568e-002, 2.1665e-005
 654.059,176.028, 1.2591e-002, 2.2593e-005
 655.059,176.391, 1.2614e-002, 2.3382e-005
 656.059,176.755, 1.2636e-002, 2.3276e-005
 657.059,177.12, 1.2659e-002, 2.1634e-005
 658.059,177.484, 1.2684e-002, 2.6119e-005
 659.059,177.849, 1.2706e-002, 2.3582e-005
 660.059,178.215, 1.2727e-002, 2.3772e-005
 661.059,178.581, 1.2750e-002, 2.2968e-005
 662.059,178.947, 1.2772e-002, 2.3164e-005
 663.059,179.313, 1.2794e-002, 2.3485e-005
 664.059,179.681, 1.2817e-002, 2.4054e-005
 665.059,180.05, 1.2839e-002, 2.3954e-005
 666.059,180.42, 1.2862e-002, 2.4015e-005
 667.059,180.789, 1.2885e-002, 2.3368e-005
 668.059,181.159, 1.2908e-002, 2.2039e-005
 669.059,181.53, 1.2931e-002, 2.3249e-005
 670.059,181.904, 1.2954e-002, 2.3526e-005
 671.059,182.279, 1.2978e-002, 2.3054e-005
 672.059,182.656, 1.3001e-002, 2.2003e-005
 673.059,183.036, 1.3025e-002, 2.2619e-005
 674.059,183.418, 1.3049e-002, 2.2918e-005
 675.059,183.802, 1.3073e-002, 2.4015e-005
 676.059,184.183, 1.3095e-002, 2.1643e-005
 677.059,184.561, 1.3117e-002, 2.1144e-005
 678.059,184.933, 1.3140e-002, 2.1711e-005
 679.059,185.3, 1.3162e-002, 2.2394e-005
 680.059,185.664, 1.3184e-002, 2.1343e-005
 681.059,186.028, 1.3206e-002, 2.0555e-005
 682.059,186.391, 1.3228e-002, 2.2859e-005
 683.059,186.755, 1.3251e-002, 2.2962e-005
 684.059,187.119, 1.3273e-002, 2.0936e-005
 685.059,187.483, 1.3296e-002, 2.2464e-005
 686.059,187.849, 1.3318e-002, 2.3070e-005
 687.059,188.218, 1.3340e-002, 2.4084e-005
 688.059,188.588, 1.3364e-002, 2.3359e-005
 689.059,188.959, 1.3386e-002, 2.4503e-005
 690.059,189.33, 1.3410e-002, 2.2694e-005
 691.059,189.704, 1.3433e-002, 2.2143e-005
 692.059,190.078, 1.3456e-002, 2.2670e-005
 693.059,190.454, 1.3479e-002, 2.2530e-005
 694.059,190.832, 1.3502e-002, 2.3370e-005
 695.059,191.207, 1.3525e-002, 2.2933e-005
 696.059,191.584, 1.3547e-002, 2.0707e-005
 697.059,191.964, 1.3569e-002, 2.3260e-005
 698.059,192.343, 1.3593e-002, 2.1585e-005
 699.059,192.723, 1.3615e-002, 2.1086e-005
 700.059,193.102, 1.3638e-002, 2.2094e-005
 701.059,193.48, 1.3660e-002, 2.3639e-005
 702.059,193.859, 1.3683e-002, 2.4539e-005
 703.059,194.24, 1.3706e-002, 2.5212e-005
 704.059,194.622, 1.3728e-002, 2.2130e-005
 705.059,195.001, 1.3751e-002, 2.4216e-005
 706.059,195.379, 1.3773e-002, 2.3659e-005
 707.059,195.757, 1.3796e-002, 2.2422e-005
 708.059,196.137, 1.3819e-002, 2.2504e-005
 709.059,196.517, 1.3842e-002, 2.2888e-005
 710.059,196.897, 1.3865e-002, 2.3005e-005
 711.059,197.278, 1.3888e-002, 2.3654e-005
 712.059,197.66, 1.3911e-002, 2.0770e-005
 713.059,198.044, 1.3933e-002, 2.3970e-005
 714.059,198.427, 1.3956e-002, 2.1408e-005
 715.059,198.809, 1.3979e-002, 2.3176e-005
 716.059,199.191, 1.4002e-002, 2.2799e-005
 717.059,199.572, 1.4024e-002, 2.1847e-005
 718.059,199.952, 1.4047e-002, 2.0577e-005
 719.059,200.333, 1.4069e-002, 2.1895e-005
 720.059,200.717, 1.4092e-002, 2.4351e-005
 721.059,201.101, 1.4115e-002, 2.2815e-005
 722.059,201.483, 1.4137e-002, 2.2869e-005
 723.059,201.866, 1.4160e-002, 2.2961e-005
 724.059,202.251, 1.4182e-002, 2.1485e-005
 725.059,202.635, 1.4205e-002, 2.1365e-005
 726.059,203.019, 1.4228e-002, 2.4791e-005
 727.059,203.403, 1.4251e-002, 2.2856e-005
 728.059,203.787, 1.4274e-002, 2.2720e-005
 729.059,204.172, 1.4297e-002, 2.0202e-005
 730.059,204.555, 1.4320e-002, 2.3319e-005
 731.059,204.938, 1.4343e-002, 2.2028e-005
 732.059,205.323, 1.4366e-002, 2.3055e-005
 733.059,205.709, 1.4389e-002, 2.1155e-005
 734.059,206.094, 1.4411e-002, 2.2039e-005
 735.059,206.478, 1.4435e-002, 2.3630e-005
 736.059,206.863, 1.4457e-002, 2.3154e-005
 737.059,207.248, 1.4481e-002, 2.5488e-005
 738.059,207.633, 1.4503e-002, 2.2364e-005
 739.059,208.02, 1.4527e-002, 2.0592e-005
 740.059,208.406, 1.4549e-002, 2.4017e-005
 741.059,208.791, 1.4573e-002, 2.4343e-005
 742.059,209.176, 1.4596e-002, 2.3226e-005
 743.059,209.564, 1.4620e-002, 2.4764e-005
 744.059,209.954, 1.4643e-002, 2.4580e-005
 745.059,210.346, 1.4666e-002, 2.4699e-005
 746.059,210.743, 1.4690e-002, 2.5198e-005
 747.059,211.143, 1.4714e-002, 2.5954e-005
 748.059,211.543, 1.4738e-002, 2.1626e-005
 749.059,211.942, 1.4762e-002, 2.1011e-005
 750.059,212.336, 1.4784e-002, 2.0579e-005
 751.059,212.724, 1.4806e-002, 2.4974e-005
 752.059,213.105, 1.4830e-002, 2.5368e-005
 753.059,213.483, 1.4851e-002, 2.2610e-005
 754.059,213.859, 1.4877e-002, 2.0298e-005
 755.059,214.236, 1.4897e-002, 2.1383e-005
 756.059,214.611, 1.4920e-002, 2.2595e-005
 757.059,214.987, 1.4942e-002, 2.1372e-005
 758.059,215.364, 1.4965e-002, 2.1427e-005
 759.059,215.741, 1.4988e-002, 2.1906e-005
 760.059,216.121, 1.5011e-002, 2.3811e-005
 761.059,216.502, 1.5033e-002, 2.5404e-005
 762.059,216.883, 1.5057e-002, 2.3607e-005
 763.059,217.263, 1.5079e-002, 2.1038e-005
 764.059,217.645, 1.5102e-002, 2.1891e-005
 765.059,218.027, 1.5124e-002, 2.5556e-005
 766.059,218.411, 1.5147e-002, 2.2722e-005
 767.059,218.795, 1.5171e-002, 2.1534e-005
 768.059,219.179, 1.5193e-002, 2.4715e-005
 769.059,219.564, 1.5216e-002, 2.4078e-005
 770.059,219.95, 1.5240e-002, 2.1477e-005
 771.059,220.337, 1.5262e-002, 2.3421e-005
 772.059,220.725, 1.5286e-002, 2.5085e-005
 773.059,221.118, 1.5309e-002, 2.4600e-005
 774.059,221.512, 1.5331e-002, 2.4575e-005
 775.059,221.905, 1.5355e-002, 2.2087e-005
 776.059,222.297, 1.5378e-002, 2.4498e-005
 777.059,222.694, 1.5403e-002, 2.4055e-005
 778.059,223.101, 1.5427e-002, 2.3627e-005
 779.059,223.517, 1.5449e-002, 2.2016e-005
 780.059,223.94, 1.5474e-002, 2.1420e-005
 781.059,224.363, 1.5498e-002, 2.4471e-005
 782.059,224.785, 1.5520e-002, 2.6603e-005
 783.059,225.206, 1.5544e-002, 2.1740e-005
 784.059,225.624, 1.5568e-002, 2.4291e-005
 785.059,226.042, 1.5590e-002, 2.1223e-005
 786.059,226.464, 1.5614e-002, 2.2408e-005
 787.059,226.891, 1.5638e-002, 2.1688e-005
 788.059,227.322, 1.5660e-002, 2.3646e-005
 789.059,227.753, 1.5684e-002, 2.0211e-005
 790.059,228.183, 1.5707e-002, 2.1566e-005
 791.059,228.615, 1.5730e-002, 2.2707e-005
 792.059,229.048, 1.5755e-002, 2.8074e-005
 793.059,229.485, 1.5779e-002, 2.2755e-005
 794.059,229.927, 1.5803e-002, 2.3527e-005
 795.059,230.367, 1.5825e-002, 2.1094e-005
 796.059,230.802, 1.5849e-002, 2.0869e-005
 797.059,231.231, 1.5872e-002, 2.6317e-005
 798.059,231.655, 1.5896e-002, 2.4983e-005
 799.059,232.073, 1.5918e-002, 2.0031e-005
 800.059,232.491, 1.5940e-002, 2.2779e-005
 801.059,232.913, 1.5965e-002, 2.4808e-005
 802.059,233.34, 1.5988e-002, 2.1865e-005
 803.059,233.771, 1.6011e-002, 2.2994e-005
 804.059,234.198, 1.6035e-002, 2.1045e-005
 805.059,234.618, 1.6057e-002, 2.6067e-005
 806.059,235.034, 1.6082e-002, 2.5103e-005
 807.059,235.446, 1.6105e-002, 2.3265e-005
 808.059,235.856, 1.6128e-002, 2.0769e-005
 809.059,236.271, 1.6150e-002, 2.7235e-005
 810.059,236.687, 1.6175e-002, 2.7906e-005
 811.059,237.107, 1.6198e-002, 2.5638e-005
 812.059,237.529, 1.6223e-002, 2.2910e-005
 813.059,237.947, 1.6245e-002, 2.0728e-005
 814.059,238.355, 1.6269e-002, 2.1130e-005
 815.059,238.752, 1.6291e-002, 1.9420e-005
 816.059,239.139, 1.6313e-002, 2.0572e-005
 817.059,239.523, 1.6335e-002, 2.7391e-005
 818.059,239.907, 1.6358e-002, 2.3096e-005
 819.059,240.294, 1.6382e-002, 2.2111e-005
 820.059,240.679, 1.6404e-002, 2.1504e-005
 821.059,241.063, 1.6428e-002, 2.3851e-005
 822.059,241.447, 1.6450e-002, 2.0980e-005
 823.059,241.831, 1.6474e-002, 2.5536e-005
 824.059,242.215, 1.6497e-002, 2.3226e-005
 825.059,242.6, 1.6519e-002, 2.1834e-005
 826.059,242.987, 1.6542e-002, 2.7201e-005
 827.059,243.373, 1.6566e-002, 2.5487e-005
 828.059,243.762, 1.6589e-002, 2.1573e-005
 829.059,244.151, 1.6612e-002, 2.1012e-005
 830.059,244.537, 1.6635e-002, 2.4065e-005
 831.059,244.921, 1.6659e-002, 2.3514e-005
 832.059,245.306, 1.6681e-002, 2.1351e-005
 833.059,245.69, 1.6703e-002, 2.0997e-005
 834.059,246.074, 1.6726e-002, 2.1654e-005
 835.059,246.46, 1.6750e-002, 2.3870e-005
 836.059,246.848, 1.6774e-002, 2.4016e-005
 837.059,247.237, 1.6795e-002, 2.8023e-005
 838.059,247.626, 1.6818e-002, 2.4109e-005
 839.059,248.006, 1.6842e-002, 2.4459e-005
 840.059,248.375, 1.6864e-002, 2.1018e-005
 841.059,248.742, 1.6886e-002, 2.1004e-005
 842.059,249.117, 1.6910e-002, 2.2112e-005
 843.059,249.506, 1.6936e-002, 2.5522e-005
 844.059,249.904, 1.6960e-002, 2.6997e-005
 845.059,250.302, 1.6983e-002, 2.2062e-005
 846.059,250.699, 1.7006e-002, 2.6090e-005
 847.059,251.093, 1.7030e-002, 2.7486e-005
 848.059,251.481, 1.7050e-002, 2.6100e-005
 849.059,251.865, 1.7074e-002, 2.3145e-005
 850.059,252.25, 1.7097e-002, 2.3207e-005
 851.059,252.637, 1.7122e-002, 2.5505e-005
 852.059,253.027, 1.7146e-002, 2.3993e-005
 853.059,253.422, 1.7169e-002, 2.1860e-005
 854.059,253.82, 1.7193e-002, 2.3781e-005
 855.059,254.219, 1.7216e-002, 2.1626e-005
 856.059,254.619, 1.7240e-002, 2.1967e-005
 857.059,255.025, 1.7264e-002, 2.2559e-005
 858.059,255.436, 1.7289e-002, 2.7759e-005
 859.059,255.857, 1.7311e-002, 3.0863e-005
 860.059,256.291, 1.7336e-002, 2.2394e-005
 861.059,256.752, 1.7362e-002, 2.4088e-005
 862.059,257.242, 1.7388e-002, 2.4000e-005
 863.059,257.727, 1.7412e-002, 2.0258e-005
 864.059,258.17, 1.7435e-002, 2.0215e-005
 865.059,258.573, 1.7457e-002, 2.0476e-005
 866.059,258.954, 1.7478e-002, 2.7913e-005
 867.059,259.328, 1.7502e-002, 2.3071e-005
 868.059,259.707, 1.7526e-002, 2.2856e-005
 869.059,260.099, 1.7552e-002, 2.2332e-005
 870.059,260.5, 1.7576e-002, 2.2045e-005
 871.059,260.901, 1.7600e-002, 2.1273e-005
 872.059,261.297, 1.7623e-002, 2.0776e-005
 873.059,261.687, 1.7646e-002, 2.3795e-005
 874.059,262.073, 1.7667e-002, 2.9565e-005
 875.059,262.46, 1.7692e-002, 2.1307e-005
 876.059,262.851, 1.7716e-002, 2.1015e-005
 877.059,263.244, 1.7740e-002, 2.2873e-005
 878.059,263.639, 1.7762e-002, 2.5469e-005
 879.059,264.033, 1.7785e-002, 2.0883e-005
 880.059,264.43, 1.7809e-002, 2.3822e-005
 881.059,264.827, 1.7835e-002, 2.2051e-005
 882.059,265.225, 1.7856e-002, 2.1550e-005
 883.059,265.636, 1.7880e-002, 2.1003e-005
 884.059,266.051, 1.7906e-002, 2.2275e-005
 885.059,266.461, 1.7930e-002, 2.6825e-005
 886.059,266.87, 1.7951e-002, 2.1767e-005
 887.059,267.282, 1.7975e-002, 2.3075e-005
 888.059,267.688, 1.7998e-002, 2.0608e-005
 889.059,268.083, 1.8022e-002, 2.0342e-005
 890.059,268.469, 1.8044e-002, 3.0198e-005
 891.059,268.846, 1.8066e-002, 2.1082e-005
 892.059,269.215, 1.8090e-002, 2.1239e-005
 893.059,269.584, 1.8114e-002, 2.1397e-005
 894.059,269.959, 1.8138e-002, 2.2380e-005
 895.059,270.339, 1.8163e-002, 3.3341e-005
 896.059,270.727, 1.8185e-002, 2.2708e-005
 897.059,271.114, 1.8210e-002, 2.0583e-005
 898.059,271.491, 1.8233e-002, 2.2863e-005
 899.059,271.868, 1.8256e-002, 2.2736e-005
 900.059,272.258, 1.8281e-002, 3.4492e-005
 901.059,272.669, 1.8305e-002, 2.2711e-005
 902.059,273.104, 1.8332e-002, 2.4406e-005
 903.059,273.558, 1.8358e-002, 2.2687e-005
 904.059,274.004, 1.8380e-002, 2.2594e-005
 905.059,274.427, 1.8403e-002, 2.0282e-005
 906.059,274.842, 1.8427e-002, 2.2017e-005
 907.059,275.273, 1.8453e-002, 2.5820e-005
 908.059,275.74, 1.8478e-002, 2.5826e-005
 909.059,276.289, 1.8509e-002, 2.7933e-005
 910.059,276.93, 1.8537e-002, 2.3819e-005
 911.059,277.481, 1.8556e-002, 1.8387e-005
 912.059,277.935, 1.8579e-002, 1.8227e-005
 913.059,278.334, 1.8598e-002, 2.9504e-005
 914.059,278.705, 1.8621e-002, 2.0721e-005
 915.059,279.067, 1.8646e-002, 2.2181e-005
 916.059,279.433, 1.8672e-002, 2.3102e-005
 917.059,279.803, 1.8698e-002, 2.7009e-005
 918.059,280.178, 1.8721e-002, 2.2423e-005
 919.059,280.56, 1.8746e-002, 2.2693e-005
 920.059,280.943, 1.8771e-002, 3.0064e-005
 921.059,281.321, 1.8793e-002, 2.2660e-005
 922.059,281.702, 1.8819e-002, 2.1592e-005
 923.059,282.082, 1.8844e-002, 2.2485e-005
 924.059,282.462, 1.8866e-002, 2.8825e-005
 925.059,282.857, 1.8891e-002, 2.4533e-005
 926.059,283.263, 1.8920e-002, 2.1915e-005
 927.059,283.668, 1.8942e-002, 2.3200e-005
 928.059,284.067, 1.8969e-002, 2.9595e-005
 929.059,284.457, 1.8994e-002, 2.3872e-005
 930.059,284.846, 1.9016e-002, 2.3465e-005
 931.059,285.241, 1.9046e-002, 2.3647e-005
 932.059,285.639, 1.9068e-002, 2.1697e-005
 933.059,286.032, 1.9089e-002, 2.1111e-005
 934.059,286.418, 1.9110e-002, 2.5277e-005
 935.059,286.801, 1.9134e-002, 2.1812e-005
 936.059,287.18, 1.9157e-002, 2.2177e-005
 937.059,287.559, 1.9181e-002, 2.1431e-005
 938.059,287.941, 1.9205e-002, 2.8911e-005
 939.059,288.324, 1.9226e-002, 2.1013e-005
 940.059,288.705, 1.9251e-002, 2.1706e-005
 941.059,289.083, 1.9275e-002, 2.0572e-005
 942.059,289.458, 1.9295e-002, 2.2204e-005
 943.059,289.833, 1.9320e-002, 2.1397e-005
 944.059,290.205, 1.9344e-002, 2.2283e-005
 945.059,290.575, 1.9368e-002, 2.1459e-005
 946.059,290.948, 1.9392e-002, 3.0364e-005
 947.059,291.324, 1.9414e-002, 2.2660e-005
 948.059,291.7, 1.9438e-002, 2.1292e-005
 949.059,292.07, 1.9461e-002, 2.1008e-005
 950.059,292.437, 1.9486e-002, 2.3774e-005
 951.059,292.8, 1.9510e-002, 2.9702e-005
 952.059,293.164, 1.9532e-002, 2.1650e-005
 953.059,293.535, 1.9557e-002, 2.3028e-005
 954.059,293.912, 1.9582e-002, 2.8860e-005
 955.059,294.289, 1.9605e-002, 3.1313e-005
 956.059,294.67, 1.9628e-002, 2.2403e-005
 957.059,295.055, 1.9653e-002, 2.2224e-005
 958.059,295.437, 1.9677e-002, 2.1058e-005
 959.059,295.805, 1.9701e-002, 2.0702e-005
 960.059,296.168, 1.9724e-002, 2.3112e-005
 961.059,296.538, 1.9748e-002, 3.3620e-005
 962.059,296.923, 1.9773e-002, 2.3955e-005
 963.059,297.322, 1.9799e-002, 2.3136e-005
 964.059,297.738, 1.9825e-002, 2.4210e-005
 965.059,298.192, 1.9854e-002, 2.5580e-005
 966.059,298.656, 1.9876e-002, 2.2154e-005
 967.059,299.08, 1.9900e-002, 1.8784e-005
 968.059,299.466, 1.9920e-002, 3.1442e-005
 969.059,299.834, 1.9945e-002, 2.1452e-005
 970.059,300.205, 1.9971e-002, 2.2111e-005
 971.059,300.586, 1.9997e-002, 2.3099e-005
 972.059,300.964, 2.0021e-002, 2.3626e-005
 973.059,301.319, 2.0041e-002, 1.9458e-005
 974.059,301.647, 2.0064e-002, 1.8947e-005
 975.059,301.963, 2.0087e-002, 2.1088e-005
 976.059,302.281, 2.0112e-002, 2.2362e-005
 977.059,302.612, 2.0138e-002, 2.3058e-005
 978.059,302.972, 2.0165e-002, 2.7000e-005
 979.059,303.38, 2.0194e-002, 3.5898e-005
 980.059,303.801, 2.0215e-002, 2.7763e-005
 981.059,304.176, 2.0236e-002, 1.9431e-005
 982.059,304.526, 2.0259e-002, 2.0836e-005
 983.059,304.877, 2.0285e-002, 3.3458e-005
 984.059,305.245, 2.0308e-002, 2.4413e-005
 985.059,305.628, 2.0335e-002, 2.2396e-005
 986.059,306.011, 2.0359e-002, 2.1443e-005
 987.059,306.379, 2.0378e-002, 2.8516e-005
 988.059,306.738, 2.0403e-002, 2.2430e-005
 989.059,307.106, 2.0429e-002, 2.2937e-005
 990.059,307.492, 2.0456e-002, 2.5785e-005
 991.059,307.894, 2.0479e-002, 3.3042e-005
 992.059,308.293, 2.0502e-002, 2.1839e-005
 993.059,308.676, 2.0526e-002, 1.9969e-005
 994.059,309.045, 2.0550e-002, 2.0631e-005
 995.059,309.409, 2.0570e-002, 3.3467e-005
 996.059,309.776, 2.0596e-002, 3.1086e-005
 997.059,310.144, 2.0621e-002, 2.1199e-005
 998.059,310.514, 2.0647e-002, 2.2713e-005
 999.059,310.886, 2.0668e-002, 2.9020e-005
1000.06,311.249, 2.0692e-002, 2.0327e-005
1001.06,311.611, 2.0718e-002, 2.3993e-005
1002.06,311.988, 2.0744e-002, 2.3912e-005
1003.06,312.365, 2.0766e-002, 2.0711e-005
1004.06,312.728, 2.0792e-002, 2.1157e-005
1005.06,313.087, 2.0813e-002, 2.3096e-005
1006.06,313.447, 2.0839e-002, 2.3670e-005
1007.06,313.805, 2.0863e-002, 2.1205e-005
1008.06,314.164, 2.0895e-002, 3.8862e-005
1009.06,314.525, 2.0916e-002, 2.0426e-005