File: data_backup/14.1mm-083019/moon000s2r2-13.6mm-091319.csv
#EXPORTTYPE:           ,DATA ALL
#FILE:                 ,moonstoneS2run2.ngb-sle
#FORMAT:               ,NETZSCH5
#FTYPE:                ,ANSI
#IDENTITY:             ,moonstone #2 rerun
#DECIMAL:              ,POINT
#SEPARATOR:            ,COMMA
#MTYPE:                ,DIL
#INSTRUMENT:           ,NETZSCH DIL 402C
#PROJECT:              ,feldspar
#DATE/TIME:            ,9/13/2019 3:41:45 PM (UTC-5)
#CORR. FILE:           ,
#TEMPCAL:              ,TCALZERO.TMX
#LABORATORY:           ,Mineral Physics
#OPERATOR:             ,PAG
#REMARK:               ,bare, norm start, for bytown and rocks moonstone Or-Ab solid soln box 1 prob 100* rectangle with notch,pink did not remeas lenght was with a micron
#SAMPLE:               ,fmu-box2
#SAMPLE LENGTH /mm:    ,13.568
#MATERIAL:             ,sapphire stnd
#MEASMODE:             ,Standard Expansion
#PURGE GAS 1:          ,ARGON
#FLOW RATE 1 /(ml/min):,75
#M.RANGE /µm:          ,500
#CORR. CODE:           ,010
#RANGE:                ,20.0°C/5.0(K/min)/430.0°C
#SEGMENT:              ,S1/1
#SEG. 1:               ,20.0°C/5.0(K/min)/430.0°C

##Temp./°C,Time/min,dL/Lo
 21.77900, 0.00000, 1.6966e-005
 21.77800, 0.06500, 1.8700e-005
 21.75700, 0.13000, 2.0088e-005
 21.74800, 0.19500, 2.1388e-005
 21.73200, 0.26000, 2.2830e-005
 21.71800, 0.32500, 2.4048e-005
 21.70100, 0.39000, 2.5023e-005
 21.68900, 0.45500, 2.6402e-005
 21.67200, 0.52000, 2.7211e-005
 21.66500, 0.58500, 2.8349e-005
 21.64600, 0.65000, 2.9199e-005
 21.62700, 0.71500, 2.9911e-005
 21.61400, 0.78000, 3.0445e-005
 21.60000, 0.84500, 3.1109e-005
 21.58100, 0.91000, 3.1738e-005
 21.56900, 0.97500, 3.2316e-005
 21.54500, 1.04000, 3.2587e-005
 21.53400, 1.10500, 3.3402e-005
 21.51300, 1.17000, 3.3500e-005
 21.50500, 1.23500, 3.4162e-005
 21.49300, 1.30000, 3.4168e-005
 21.47100, 1.36500, 3.4518e-005
 21.45100, 1.43000, 3.4495e-005
 21.43600, 1.49500, 3.4609e-005
 21.42600, 1.56000, 3.5044e-005
 21.40600, 1.62500, 3.4938e-005
 21.39600, 1.69000, 3.5263e-005
 21.40100, 1.75500, 3.5455e-005
 21.38900, 1.82000, 3.5508e-005
 21.38100, 1.88500, 3.5340e-005
 21.37900, 1.95000, 3.5077e-005
 21.37700, 2.01500, 3.4565e-005
 21.38100, 2.08000, 3.4529e-005
 21.39200, 2.14500, 3.3935e-005
 21.40400, 2.21000, 3.3422e-005
 21.42900, 2.27500, 3.2900e-005
 21.45800, 2.34000, 3.2472e-005
 21.48900, 2.40500, 3.1468e-005
 21.53500, 2.47000, 3.0627e-005
 21.57200, 2.53500, 2.9564e-005
 21.62500, 2.60000, 2.8487e-005
 21.70200, 2.66500, 2.7379e-005
 21.77700, 2.73000, 2.6054e-005
 21.86900, 2.79500, 2.4767e-005
 21.96000, 2.86000, 2.3142e-005
 22.06800, 2.92500, 2.1094e-005
 22.18000, 2.99000, 1.9324e-005
 22.30900, 3.05500, 1.7528e-005
 22.44300, 3.12000, 1.5501e-005
 22.59400, 3.18500, 1.3356e-005
 22.77900, 3.25000, 1.1435e-005
 22.95400, 3.31500, 8.9829e-006
 23.13500, 3.38000, 6.5274e-006
 23.34700, 3.44500, 4.3582e-006
 23.56400, 3.51000, 1.7090e-006
 23.79200, 3.57500,-8.8899e-007
 24.04500, 3.64000,-3.6672e-006
 24.28400, 3.70500,-6.6466e-006
 24.55900, 3.77000,-9.5523e-006
 24.83200, 3.83500,-1.2491e-005
 25.12700, 3.90000,-1.5308e-005
 25.43000, 3.96500,-1.8436e-005
 25.74000, 4.03000,-2.1688e-005
 26.07000, 4.09500,-2.4502e-005
 26.41200, 4.16000,-2.7718e-005
 26.76000, 4.22500,-3.0715e-005
 27.13000, 4.29000,-3.3849e-005
 27.50500, 4.35500,-3.6910e-005
 27.88700, 4.42000,-4.0270e-005
 28.27900, 4.48500,-4.3106e-005
 28.67900, 4.55000,-4.6234e-005
 29.08200, 4.61500,-4.9589e-005
 29.50400, 4.68000,-5.2189e-005
 29.93000, 4.74500,-5.5267e-005
 30.37000, 4.81000,-5.8299e-005
 30.81300, 4.87500,-6.1327e-005
 31.27000, 4.94000,-6.4152e-005
 31.72800, 5.00500,-6.7006e-005
 32.19500, 5.07000,-6.9804e-005
 32.66000, 5.13500,-7.2284e-005
 33.14700, 5.20000,-7.4790e-005
 33.61000, 5.26500,-7.7375e-005
 34.11100, 5.33000,-7.9695e-005
 34.60400, 5.39500,-8.2136e-005
 35.09800, 5.46000,-8.4422e-005
 35.60200, 5.52500,-8.6221e-005
 36.09900, 5.59000,-8.8815e-005
 36.60500, 5.65500,-9.0718e-005
 37.12000, 5.72000,-9.2288e-005
 37.62800, 5.78500,-9.4009e-005
 38.14900, 5.85000,-9.5985e-005
 38.65500, 5.91500,-9.7544e-005
 39.18100, 5.98000,-9.8792e-005
 39.70100, 6.04500,-1.0033e-004
 40.21400, 6.11000,-1.0187e-004
 40.73700, 6.17500,-1.0302e-004
 41.26400, 6.24000,-1.0397e-004
 41.78800, 6.30500,-1.0467e-004
 42.31800, 6.37000,-1.0564e-004
 42.85600, 6.43500,-1.0624e-004
 43.37300, 6.50000,-1.0696e-004
 43.90200, 6.56500,-1.0763e-004
 44.43100, 6.63000,-1.0815e-004
 44.96100, 6.69500,-1.0844e-004
 45.49100, 6.76000,-1.0842e-004
 46.01500, 6.82500,-1.0867e-004
 46.56000, 6.89000,-1.0878e-004
 47.09200, 6.95500,-1.0869e-004
 47.62100, 7.02000,-1.0880e-004
 48.15000, 7.08500,-1.0864e-004
 48.68200, 7.15000,-1.0879e-004
 49.21700, 7.21500,-1.0849e-004
 49.74800, 7.28000,-1.0817e-004
 50.27900, 7.34500,-1.0801e-004
 50.81300, 7.41000,-1.0752e-004
 51.34200, 7.47500,-1.0747e-004
 51.87400, 7.54000,-1.0677e-004
 52.39500, 7.60500,-1.0633e-004
 52.93700, 7.67000,-1.0556e-004
 53.48400, 7.73500,-1.0509e-004
 54.01400, 7.80000,-1.0412e-004
 54.55800, 7.86500,-1.0327e-004
 55.08800, 7.93000,-1.0256e-004
 55.63100, 7.99500,-1.0205e-004
 56.17200, 8.06000,-1.0111e-004
 56.71600, 8.12500,-1.0000e-004
 57.25200, 8.19000,-9.8780e-005
 57.80300, 8.25500,-9.7706e-005
 58.34500, 8.32000,-9.6927e-005
 58.87900, 8.38500,-9.5993e-005
 59.41600, 8.45000,-9.4697e-005
 59.97000, 8.51500,-9.3609e-005
 60.51000, 8.58000,-9.2668e-005
 61.07200, 8.64500,-9.1033e-005
 61.61800, 8.71000,-9.0030e-005
 62.17700, 8.77500,-8.8563e-005
 62.72700, 8.84000,-8.7116e-005
 63.28600, 8.90500,-8.5925e-005
 63.84700, 8.97000,-8.4249e-005
 64.40300, 9.03500,-8.3125e-005
 64.96100, 9.10000,-8.1387e-005
 65.52500, 9.16500,-7.9910e-005
 66.09400, 9.23000,-7.8193e-005
 66.65900, 9.29500,-7.6605e-005
 67.22800, 9.36000,-7.5228e-005
 67.78800, 9.42500,-7.3465e-005
 68.36500, 9.49000,-7.1844e-005
 68.92400, 9.55500,-7.0299e-005
 69.49500, 9.62000,-6.8463e-005
 70.06800, 9.68500,-6.6566e-005
 70.63700, 9.75000,-6.4937e-005
 71.20800, 9.81500,-6.3293e-005
 71.78300, 9.88000,-6.1076e-005
 72.36000, 9.94500,-5.9369e-005
 72.94000,10.01000,-5.7465e-005
 73.51400,10.07500,-5.5696e-005
 74.09200,10.14000,-5.3519e-005
 74.67100,10.20500,-5.1593e-005
 75.25300,10.27000,-4.9625e-005
 75.83400,10.33500,-4.7149e-005
 76.41800,10.40000,-4.5120e-005
 76.99800,10.46500,-4.2852e-005
 77.57400,10.53000,-4.0649e-005
 78.15200,10.59500,-3.8662e-005
 78.74200,10.66000,-3.6393e-005
 79.32700,10.72500,-3.4050e-005
 79.89900,10.79000,-3.1607e-005
 80.48300,10.85500,-2.9334e-005
 81.06900,10.92000,-2.6917e-005
 81.64600,10.98500,-2.4472e-005
 82.24100,11.05000,-2.1768e-005
 82.81700,11.11500,-1.9394e-005
 83.40200,11.18000,-1.6807e-005
 83.98600,11.24500,-1.4291e-005
 84.56300,11.31000,-1.1457e-005
 85.14100,11.37500,-8.9556e-006
 85.72000,11.44000,-6.2255e-006
 86.31400,11.50500,-3.1092e-006
 86.89200,11.57000,-6.1565e-007
 87.46800,11.63500, 2.1772e-006
 88.04500,11.70000, 5.2358e-006
 88.62800,11.76500, 7.8872e-006
 89.19300,11.83000, 1.0998e-005
 89.77000,11.89500, 1.3800e-005
 90.34700,11.96000, 1.6824e-005
 90.91600,12.02500, 1.9385e-005
 91.49600,12.09000, 2.2303e-005
 92.07300,12.15500, 2.5770e-005
 92.66200,12.22000, 2.8866e-005
 93.23800,12.28500, 3.1894e-005
 93.81100,12.35000, 3.5187e-005
 94.38700,12.41500, 3.8290e-005
 94.95600,12.48000, 4.1085e-005
 95.52800,12.54500, 4.4436e-005
 96.10600,12.61000, 4.7777e-005
 96.66500,12.67500, 5.0813e-005
 97.24300,12.74000, 5.4275e-005
 97.81000,12.80500, 5.7454e-005
 98.37100,12.87000, 6.0635e-005
 98.93600,12.93500, 6.3883e-005
 99.49400,13.00000, 6.7210e-005
100.06,13.06500, 7.0420e-005
100.629,13.13000, 7.3726e-005
101.195,13.19500, 7.7048e-005
101.758,13.26000, 8.0892e-005
102.323,13.32500, 8.4419e-005
102.887,13.39000, 8.7839e-005
103.449,13.45500, 9.1096e-005
104.011,13.52000, 9.4502e-005
104.568,13.58500, 9.7908e-005
105.132,13.65000, 1.0142e-004
105.698,13.71500, 1.0506e-004
106.25,13.78000, 1.0858e-004
106.807,13.84500, 1.1201e-004
107.369,13.91000, 1.1525e-004
107.924,13.97500, 1.1909e-004
108.474,14.04000, 1.2239e-004
109.032,14.10500, 1.2590e-004
109.585,14.17000, 1.2950e-004
110.141,14.23500, 1.3273e-004
110.706,14.30000, 1.3650e-004
111.248,14.36500, 1.4029e-004
111.808,14.43000, 1.4384e-004
112.362,14.49500, 1.4748e-004
112.915,14.56000, 1.5106e-004
113.472,14.62500, 1.5442e-004
114.027,14.69000, 1.5849e-004
114.576,14.75500, 1.6198e-004
115.125,14.82000, 1.6565e-004
115.682,14.88500, 1.6914e-004
116.224,14.95000, 1.7291e-004
116.782,15.01500, 1.7650e-004
117.316,15.08000, 1.7977e-004
117.867,15.14500, 1.8390e-004
118.407,15.21000, 1.8719e-004
118.962,15.27500, 1.9092e-004
119.507,15.34000, 1.9472e-004
120.054,15.40500, 1.9837e-004
120.61,15.47000, 2.0206e-004
121.156,15.53500, 2.0615e-004
121.705,15.60000, 2.0958e-004
122.24,15.66500, 2.1312e-004
122.789,15.73000, 2.1686e-004
123.331,15.79500, 2.2078e-004
123.871,15.86000, 2.2451e-004
124.412,15.92500, 2.2813e-004
124.954,15.99000, 2.3168e-004
125.495,16.05500, 2.3553e-004
126.031,16.12000, 2.3934e-004
126.579,16.18500, 2.4331e-004
127.121,16.25000, 2.4711e-004
127.657,16.31500, 2.5070e-004
128.196,16.38000, 2.5449e-004
128.739,16.44500, 2.5868e-004
129.268,16.51000, 2.6211e-004
129.814,16.57500, 2.6581e-004
130.346,16.64000, 2.6960e-004
130.886,16.70500, 2.7364e-004
131.425,16.77000, 2.7739e-004
131.969,16.83500, 2.8128e-004
132.505,16.90000, 2.8530e-004
133.039,16.96500, 2.8917e-004
133.572,17.03000, 2.9295e-004
134.108,17.09500, 2.9664e-004
134.645,17.16000, 3.0080e-004
135.175,17.22500, 3.0450e-004
135.711,17.29000, 3.0808e-004
136.244,17.35500, 3.1219e-004
136.773,17.42000, 3.1594e-004
137.306,17.48500, 3.1986e-004
137.843,17.55000, 3.2371e-004
138.365,17.61500, 3.2766e-004
138.898,17.68000, 3.3148e-004
139.43,17.74500, 3.3533e-004
139.948,17.81000, 3.3915e-004
140.477,17.87500, 3.4310e-004
141.002,17.94000, 3.4657e-004
141.525,18.00500, 3.5030e-004
142.053,18.07000, 3.5463e-004
142.58,18.13500, 3.5831e-004
143.098,18.20000, 3.6209e-004
143.633,18.26500, 3.6612e-004
144.153,18.33000, 3.6987e-004
144.688,18.39500, 3.7408e-004
145.205,18.46000, 3.7767e-004
145.728,18.52500, 3.8174e-004
146.256,18.59000, 3.8541e-004
146.773,18.65500, 3.8924e-004
147.301,18.72000, 3.9335e-004
147.821,18.78500, 3.9724e-004
148.341,18.85000, 4.0079e-004
148.862,18.91500, 4.0488e-004
149.385,18.98000, 4.0909e-004
149.905,19.04500, 4.1253e-004
150.429,19.11000, 4.1659e-004
150.944,19.17500, 4.2049e-004
151.46,19.24000, 4.2453e-004
151.982,19.30500, 4.2848e-004
152.503,19.37000, 4.3227e-004
153.022,19.43500, 4.3621e-004
153.534,19.50000, 4.4014e-004
154.055,19.56500, 4.4396e-004
154.566,19.63000, 4.4780e-004
155.084,19.69500, 4.5182e-004
155.602,19.76000, 4.5565e-004
156.117,19.82500, 4.5981e-004
156.636,19.89000, 4.6350e-004
157.147,19.95500, 4.6739e-004
157.667,20.02000, 4.7125e-004
158.177,20.08500, 4.7516e-004
158.683,20.15000, 4.7879e-004
159.192,20.21500, 4.8273e-004
159.711,20.28000, 4.8664e-004
160.219,20.34500, 4.9068e-004
160.731,20.41000, 4.9456e-004
161.243,20.47500, 4.9863e-004
161.75,20.54000, 5.0225e-004
162.264,20.60500, 5.0612e-004
162.773,20.67000, 5.1027e-004
163.27,20.73500, 5.1377e-004
163.781,20.80000, 5.1780e-004
164.292,20.86500, 5.2162e-004
164.8,20.93000, 5.2562e-004
165.313,20.99500, 5.2957e-004
165.821,21.06000, 5.3325e-004
166.333,21.12500, 5.3716e-004
166.839,21.19000, 5.4111e-004
167.35,21.25500, 5.4501e-004
167.854,21.32000, 5.4882e-004
168.363,21.38500, 5.5271e-004
168.865,21.45000, 5.5661e-004
169.368,21.51500, 5.6059e-004
169.875,21.58000, 5.6426e-004
170.387,21.64500, 5.6836e-004
170.883,21.71000, 5.7201e-004
171.388,21.77500, 5.7576e-004
171.894,21.84000, 5.7975e-004
172.401,21.90500, 5.8365e-004
172.899,21.97000, 5.8762e-004
173.405,22.03500, 5.9135e-004
173.912,22.10000, 5.9537e-004
174.413,22.16500, 5.9900e-004
174.915,22.23000, 6.0309e-004
175.409,22.29500, 6.0692e-004
175.918,22.36000, 6.1061e-004
176.412,22.42500, 6.1452e-004
176.903,22.49000, 6.1842e-004
177.402,22.55500, 6.2194e-004
177.898,22.62000, 6.2599e-004
178.397,22.68500, 6.2971e-004
178.893,22.75000, 6.3368e-004
179.388,22.81500, 6.3767e-004
179.886,22.88000, 6.4136e-004
180.382,22.94500, 6.4522e-004
180.882,23.01000, 6.4920e-004
181.38,23.07500, 6.5281e-004
181.875,23.14000, 6.5686e-004
182.379,23.20500, 6.6074e-004
182.873,23.27000, 6.6448e-004
183.364,23.33500, 6.6861e-004
183.864,23.40000, 6.7218e-004
184.349,23.46500, 6.7625e-004
184.846,23.53000, 6.7997e-004
185.341,23.59500, 6.8399e-004
185.836,23.66000, 6.8771e-004
186.33,23.72500, 6.9155e-004
186.817,23.79000, 6.9543e-004
187.323,23.85500, 6.9926e-004
187.809,23.92000, 7.0332e-004
188.298,23.98500, 7.0707e-004
188.794,24.05000, 7.1103e-004
189.287,24.11500, 7.1481e-004
189.779,24.18000, 7.1878e-004
190.263,24.24500, 7.2248e-004
190.756,24.31000, 7.2605e-004
191.245,24.37500, 7.3019e-004
191.734,24.44000, 7.3378e-004
192.225,24.50500, 7.3786e-004
192.716,24.57000, 7.4164e-004
193.214,24.63500, 7.4546e-004
193.693,24.70000, 7.4914e-004
194.176,24.76500, 7.5293e-004
194.669,24.83000, 7.5680e-004
195.162,24.89500, 7.6070e-004
195.646,24.96000, 7.6453e-004
196.136,25.02500, 7.6833e-004
196.617,25.09000, 7.7214e-004
197.111,25.15500, 7.7585e-004
197.593,25.22000, 7.7970e-004
198.073,25.28500, 7.8354e-004
198.561,25.35000, 7.8703e-004
199.051,25.41500, 7.9100e-004
199.537,25.48000, 7.9500e-004
200.025,25.54500, 7.9831e-004
200.509,25.61000, 8.0244e-004
200.986,25.67500, 8.0621e-004
201.476,25.74000, 8.0995e-004
201.955,25.80500, 8.1400e-004
202.439,25.87000, 8.1788e-004
202.928,25.93500, 8.2153e-004
203.407,26.00000, 8.2541e-004
203.897,26.06500, 8.2903e-004
204.375,26.13000, 8.3257e-004
204.855,26.19500, 8.3643e-004
205.338,26.26000, 8.4025e-004
205.822,26.32500, 8.4403e-004
206.3,26.39000, 8.4745e-004
206.781,26.45500, 8.5151e-004
207.264,26.52000, 8.5524e-004
207.743,26.58500, 8.5888e-004
208.219,26.65000, 8.6295e-004
208.704,26.71500, 8.6671e-004
209.182,26.78000, 8.7016e-004
209.657,26.84500, 8.7384e-004
210.145,26.91000, 8.7788e-004
210.62,26.97500, 8.8129e-004
211.101,27.04000, 8.8518e-004
211.577,27.10500, 8.8868e-004
212.055,27.17000, 8.9257e-004
212.532,27.23500, 8.9621e-004
213.012,27.30000, 9.0002e-004
213.483,27.36500, 9.0355e-004
213.96,27.43000, 9.0754e-004
214.436,27.49500, 9.1145e-004
214.922,27.56000, 9.1482e-004
215.391,27.62500, 9.1875e-004
215.861,27.69000, 9.2237e-004
216.333,27.75500, 9.2592e-004
216.815,27.82000, 9.2986e-004
217.282,27.88500, 9.3354e-004
217.751,27.95000, 9.3724e-004
218.225,28.01500, 9.4121e-004
218.709,28.08000, 9.4487e-004
219.177,28.14500, 9.4863e-004
219.653,28.21000, 9.5226e-004
220.123,28.27500, 9.5621e-004
220.596,28.34000, 9.5956e-004
221.062,28.40500, 9.6326e-004
221.535,28.47000, 9.6694e-004
222.011,28.53500, 9.7088e-004
222.479,28.60000, 9.7456e-004
222.952,28.66500, 9.7840e-004
223.426,28.73000, 9.8190e-004
223.891,28.79500, 9.8535e-004
224.363,28.86000, 9.8962e-004
224.831,28.92500, 9.9314e-004
225.299,28.99000, 9.9672e-004
225.77,29.05500, 1.0006e-003
226.236,29.12000, 1.0042e-003
226.713,29.18500, 1.0078e-003
227.18,29.25000, 1.0115e-003
227.654,29.31500, 1.0154e-003
228.119,29.38000, 1.0191e-003
228.59,29.44500, 1.0228e-003
229.058,29.51000, 1.0266e-003
229.527,29.57500, 1.0300e-003
229.988,29.64000, 1.0334e-003
230.457,29.70500, 1.0373e-003
230.922,29.77000, 1.0413e-003
231.387,29.83500, 1.0449e-003
231.852,29.90000, 1.0484e-003
232.318,29.96500, 1.0519e-003
232.783,30.03000, 1.0558e-003
233.243,30.09500, 1.0599e-003
233.704,30.16000, 1.0634e-003
234.171,30.22500, 1.0666e-003
234.636,30.29000, 1.0705e-003
235.101,30.35500, 1.0742e-003
235.563,30.42000, 1.0778e-003
236.024,30.48500, 1.0816e-003
236.484,30.55000, 1.0849e-003
236.946,30.61500, 1.0887e-003
237.406,30.68000, 1.0926e-003
237.865,30.74500, 1.0963e-003
238.328,30.81000, 1.0997e-003
238.785,30.87500, 1.1033e-003
239.251,30.94000, 1.1070e-003
239.709,31.00500, 1.1107e-003
240.169,31.07000, 1.1143e-003
240.63,31.13500, 1.1178e-003
241.09,31.20000, 1.1217e-003
241.546,31.26500, 1.1253e-003
242.005,31.33000, 1.1287e-003
242.46,31.39500, 1.1323e-003
242.917,31.46000, 1.1359e-003
243.376,31.52500, 1.1395e-003
243.832,31.59000, 1.1431e-003
244.287,31.65500, 1.1465e-003
244.753,31.72000, 1.1504e-003
245.199,31.78500, 1.1537e-003
245.657,31.85000, 1.1574e-003
246.111,31.91500, 1.1610e-003
246.567,31.98000, 1.1648e-003
247.025,32.04500, 1.1684e-003
247.479,32.11000, 1.1718e-003
247.938,32.17500, 1.1753e-003
248.384,32.24000, 1.1791e-003
248.844,32.30500, 1.1827e-003
249.299,32.37000, 1.1862e-003
249.746,32.43500, 1.1895e-003
250.197,32.50000, 1.1933e-003
250.653,32.56500, 1.1967e-003
251.101,32.63000, 1.2005e-003
251.559,32.69500, 1.2038e-003
252.011,32.76000, 1.2074e-003
252.462,32.82500, 1.2110e-003
252.917,32.89000, 1.2147e-003
253.362,32.95500, 1.2182e-003
253.813,33.02000, 1.2216e-003
254.265,33.08500, 1.2252e-003
254.721,33.15000, 1.2289e-003
255.165,33.21500, 1.2326e-003
255.618,33.28000, 1.2359e-003
256.064,33.34500, 1.2395e-003
256.514,33.41000, 1.2430e-003
256.968,33.47500, 1.2469e-003
257.416,33.54000, 1.2502e-003
257.861,33.60500, 1.2536e-003
258.311,33.67000, 1.2572e-003
258.761,33.73500, 1.2608e-003
259.216,33.80000, 1.2646e-003
259.659,33.86500, 1.2678e-003
260.107,33.93000, 1.2716e-003
260.555,33.99500, 1.2751e-003
261,34.06000, 1.2782e-003
261.454,34.12500, 1.2824e-003
261.896,34.19000, 1.2858e-003
262.342,34.25500, 1.2892e-003
262.794,34.32000, 1.2927e-003
263.237,34.38500, 1.2959e-003
263.682,34.45000, 1.2995e-003
264.121,34.51500, 1.3032e-003
264.574,34.58000, 1.3067e-003
265.016,34.64500, 1.3102e-003
265.458,34.71000, 1.3138e-003
265.905,34.77500, 1.3173e-003
266.346,34.84000, 1.3205e-003
266.792,34.90500, 1.3243e-003
267.24,34.97000, 1.3277e-003
267.672,35.03500, 1.3312e-003
268.118,35.10000, 1.3345e-003
268.56,35.16500, 1.3383e-003
268.993,35.23000, 1.3415e-003
269.436,35.29500, 1.3451e-003
269.874,35.36000, 1.3488e-003
270.322,35.42500, 1.3520e-003
270.764,35.49000, 1.3555e-003
271.206,35.55500, 1.3591e-003
271.65,35.62000, 1.3627e-003
272.084,35.68500, 1.3658e-003
272.522,35.75000, 1.3692e-003
272.963,35.81500, 1.3726e-003
273.402,35.88000, 1.3761e-003
273.84,35.94500, 1.3797e-003
274.278,36.01000, 1.3834e-003
274.711,36.07500, 1.3866e-003
275.152,36.14000, 1.3903e-003
275.596,36.20500, 1.3937e-003
276.033,36.27000, 1.3969e-003
276.465,36.33500, 1.4005e-003
276.906,36.40000, 1.4035e-003
277.335,36.46500, 1.4072e-003
277.771,36.53000, 1.4107e-003
278.212,36.59500, 1.4140e-003
278.641,36.66000, 1.4176e-003
279.081,36.72500, 1.4209e-003
279.524,36.79000, 1.4247e-003
279.962,36.85500, 1.4278e-003
280.392,36.92000, 1.4313e-003
280.83,36.98500, 1.4348e-003
281.259,37.05000, 1.4383e-003
281.699,37.11500, 1.4415e-003
282.139,37.18000, 1.4449e-003
282.571,37.24500, 1.4485e-003
283.008,37.31000, 1.4521e-003
283.439,37.37500, 1.4553e-003
283.872,37.44000, 1.4588e-003
284.305,37.50500, 1.4622e-003
284.748,37.57000, 1.4659e-003
285.176,37.63500, 1.4689e-003
285.607,37.70000, 1.4723e-003
286.043,37.76500, 1.4757e-003
286.476,37.83000, 1.4790e-003
286.906,37.89500, 1.4826e-003
287.337,37.96000, 1.4858e-003
287.767,38.02500, 1.4893e-003
288.201,38.09000, 1.4926e-003
288.632,38.15500, 1.4959e-003
289.065,38.22000, 1.4994e-003
289.482,38.28500, 1.5024e-003
289.909,38.35000, 1.5058e-003
290.343,38.41500, 1.5094e-003
290.767,38.48000, 1.5124e-003
291.211,38.54500, 1.5158e-003
291.637,38.61000, 1.5191e-003
292.069,38.67500, 1.5225e-003
292.496,38.74000, 1.5258e-003
292.923,38.80500, 1.5295e-003
293.351,38.87000, 1.5327e-003
293.778,38.93500, 1.5358e-003
294.21,39.00000, 1.5393e-003
294.633,39.06500, 1.5427e-003
295.062,39.13000, 1.5459e-003
295.488,39.19500, 1.5493e-003
295.908,39.26000, 1.5523e-003
296.334,39.32500, 1.5561e-003
296.765,39.39000, 1.5594e-003
297.186,39.45500, 1.5626e-003
297.613,39.52000, 1.5659e-003
298.032,39.58500, 1.5692e-003
298.466,39.65000, 1.5725e-003
298.887,39.71500, 1.5756e-003
299.314,39.78000, 1.5792e-003
299.732,39.84500, 1.5823e-003
300.156,39.91000, 1.5856e-003
300.58,39.97500, 1.5891e-003
300.995,40.04000, 1.5924e-003
301.419,40.10500, 1.5956e-003
301.846,40.17000, 1.5988e-003
302.261,40.23500, 1.6024e-003
302.687,40.30000, 1.6053e-003
303.109,40.36500, 1.6088e-003
303.535,40.43000, 1.6121e-003
303.959,40.49500, 1.6152e-003
304.384,40.56000, 1.6190e-003
304.806,40.62500, 1.6221e-003
305.232,40.69000, 1.6255e-003
305.657,40.75500, 1.6290e-003
306.086,40.82000, 1.6323e-003
306.502,40.88500, 1.6354e-003
306.929,40.95000, 1.6386e-003
307.348,41.01500, 1.6419e-003
307.772,41.08000, 1.6455e-003
308.186,41.14500, 1.6485e-003
308.607,41.21000, 1.6522e-003
309.024,41.27500, 1.6552e-003
309.452,41.34000, 1.6586e-003
309.869,41.40500, 1.6615e-003
310.287,41.47000, 1.6650e-003
310.708,41.53500, 1.6678e-003
311.133,41.60000, 1.6713e-003
311.552,41.66500, 1.6746e-003
311.971,41.73000, 1.6780e-003
312.385,41.79500, 1.6813e-003
312.814,41.86000, 1.6845e-003
313.236,41.92500, 1.6879e-003
313.65,41.99000, 1.6907e-003
314.065,42.05500, 1.6943e-003
314.484,42.12000, 1.6975e-003
314.899,42.18500, 1.7008e-003
315.314,42.25000, 1.7037e-003
315.731,42.31500, 1.7073e-003
316.149,42.38000, 1.7107e-003
316.565,42.44500, 1.7136e-003
316.987,42.51000, 1.7173e-003
317.396,42.57500, 1.7204e-003
317.813,42.64000, 1.7232e-003
318.219,42.70500, 1.7266e-003
318.644,42.77000, 1.7302e-003
319.048,42.83500, 1.7332e-003
319.459,42.90000, 1.7364e-003
319.869,42.96500, 1.7394e-003
320.282,43.03000, 1.7430e-003
320.704,43.09500, 1.7461e-003
321.107,43.16000, 1.7493e-003
321.525,43.22500, 1.7523e-003
321.938,43.29000, 1.7554e-003
322.349,43.35500, 1.7586e-003
322.759,43.42000, 1.7620e-003
323.17,43.48500, 1.7655e-003
323.585,43.55000, 1.7682e-003
323.996,43.61500, 1.7716e-003
324.41,43.68000, 1.7749e-003
324.814,43.74500, 1.7776e-003
325.227,43.81000, 1.7807e-003
325.632,43.87500, 1.7840e-003
326.043,43.94000, 1.7874e-003
326.451,44.00500, 1.7903e-003
326.869,44.07000, 1.7936e-003
327.27,44.13500, 1.7967e-003
327.685,44.20000, 1.8003e-003
328.095,44.26500, 1.8034e-003
328.51,44.33000, 1.8066e-003
328.914,44.39500, 1.8098e-003
329.323,44.46000, 1.8128e-003
329.73,44.52500, 1.8161e-003
330.14,44.59000, 1.8191e-003
330.544,44.65500, 1.8223e-003
330.951,44.72000, 1.8256e-003
331.359,44.78500, 1.8287e-003
331.76,44.85000, 1.8317e-003
332.173,44.91500, 1.8349e-003
332.576,44.98000, 1.8382e-003
332.989,45.04500, 1.8414e-003
333.394,45.11000, 1.8445e-003
333.796,45.17500, 1.8477e-003
334.196,45.24000, 1.8505e-003
334.601,45.30500, 1.8539e-003
335.004,45.37000, 1.8574e-003
335.4,45.43500, 1.8602e-003
335.805,45.50000, 1.8635e-003
336.212,45.56500, 1.8668e-003
336.615,45.63000, 1.8696e-003
337.001,45.69500, 1.8727e-003
337.407,45.76000, 1.8756e-003
337.814,45.82500, 1.8788e-003
338.218,45.89000, 1.8825e-003
338.625,45.95500, 1.8854e-003
339.027,46.02000, 1.8882e-003
339.427,46.08500, 1.8917e-003
339.826,46.15000, 1.8948e-003
340.231,46.21500, 1.8979e-003
340.632,46.28000, 1.9011e-003
341.041,46.34500, 1.9044e-003
341.436,46.41000, 1.9074e-003
341.839,46.47500, 1.9106e-003
342.241,46.54000, 1.9135e-003
342.639,46.60500, 1.9165e-003
343.037,46.67000, 1.9201e-003
343.431,46.73500, 1.9230e-003
343.828,46.80000, 1.9261e-003
344.232,46.86500, 1.9293e-003
344.633,46.93000, 1.9327e-003
345.042,46.99500, 1.9358e-003
345.432,47.06000, 1.9387e-003
345.832,47.12500, 1.9422e-003
346.224,47.19000, 1.9448e-003
346.626,47.25500, 1.9480e-003
347.02,47.32000, 1.9509e-003
347.416,47.38500, 1.9539e-003
347.81,47.45000, 1.9571e-003
348.205,47.51500, 1.9603e-003
348.6,47.58000, 1.9631e-003
348.999,47.64500, 1.9662e-003
349.398,47.71000, 1.9693e-003
349.79,47.77500, 1.9724e-003
350.185,47.84000, 1.9756e-003
350.582,47.90500, 1.9785e-003
350.975,47.97000, 1.9815e-003
351.376,48.03500, 1.9846e-003
351.764,48.10000, 1.9878e-003
352.163,48.16500, 1.9908e-003
352.554,48.23000, 1.9937e-003
352.946,48.29500, 1.9967e-003
353.349,48.36000, 2.0002e-003
353.739,48.42500, 2.0031e-003
354.138,48.49000, 2.0058e-003
354.534,48.55500, 2.0090e-003
354.927,48.62000, 2.0121e-003
355.323,48.68500, 2.0154e-003
355.714,48.75000, 2.0179e-003
356.109,48.81500, 2.0210e-003
356.509,48.88000, 2.0243e-003
356.905,48.94500, 2.0269e-003
357.291,49.01000, 2.0301e-003
357.695,49.07500, 2.0334e-003
358.095,49.14000, 2.0364e-003
358.48,49.20500, 2.0394e-003
358.881,49.27000, 2.0428e-003
359.273,49.33500, 2.0457e-003
359.674,49.40000, 2.0485e-003
360.065,49.46500, 2.0515e-003
360.459,49.53000, 2.0548e-003
360.85,49.59500, 2.0575e-003
361.248,49.66000, 2.0606e-003
361.64,49.72500, 2.0636e-003
362.037,49.79000, 2.0667e-003
362.423,49.85500, 2.0695e-003
362.819,49.92000, 2.0730e-003
363.205,49.98500, 2.0757e-003
363.599,50.05000, 2.0786e-003
363.99,50.11500, 2.0819e-003
364.38,50.18000, 2.0849e-003
364.774,50.24500, 2.0879e-003
365.158,50.31000, 2.0907e-003
365.547,50.37500, 2.0936e-003
365.933,50.44000, 2.0967e-003
366.327,50.50500, 2.0998e-003
366.712,50.57000, 2.1030e-003
367.102,50.63500, 2.1055e-003
367.489,50.70000, 2.1089e-003
367.877,50.76500, 2.1119e-003
368.268,50.83000, 2.1148e-003
368.649,50.89500, 2.1177e-003
369.039,50.96000, 2.1207e-003
369.431,51.02500, 2.1238e-003
369.818,51.09000, 2.1269e-003
370.203,51.15500, 2.1296e-003
370.592,51.22000, 2.1330e-003
370.979,51.28500, 2.1358e-003
371.363,51.35000, 2.1393e-003
371.75,51.41500, 2.1421e-003
372.134,51.48000, 2.1448e-003
372.519,51.54500, 2.1476e-003
372.911,51.61000, 2.1508e-003
373.296,51.67500, 2.1541e-003
373.672,51.74000, 2.1569e-003
374.062,51.80500, 2.1600e-003
374.44,51.87000, 2.1627e-003
374.829,51.93500, 2.1656e-003
375.21,52.00000, 2.1684e-003
375.596,52.06500, 2.1717e-003
375.978,52.13000, 2.1746e-003
376.364,52.19500, 2.1774e-003
376.75,52.26000, 2.1806e-003
377.129,52.32500, 2.1834e-003
377.508,52.39000, 2.1862e-003
377.895,52.45500, 2.1896e-003
378.278,52.52000, 2.1925e-003
378.656,52.58500, 2.1948e-003
379.04,52.65000, 2.1979e-003
379.417,52.71500, 2.2011e-003
379.806,52.78000, 2.2044e-003
380.19,52.84500, 2.2068e-003
380.568,52.91000, 2.2099e-003
380.952,52.97500, 2.2127e-003
381.339,53.04000, 2.2160e-003
381.718,53.10500, 2.2186e-003
382.098,53.17000, 2.2217e-003
382.483,53.23500, 2.2248e-003
382.869,53.30000, 2.2279e-003
383.254,53.36500, 2.2307e-003
383.633,53.43000, 2.2338e-003
384.012,53.49500, 2.2365e-003
384.395,53.56000, 2.2396e-003
384.776,53.62500, 2.2427e-003
385.154,53.69000, 2.2452e-003
385.53,53.75500, 2.2485e-003
385.919,53.82000, 2.2515e-003
386.299,53.88500, 2.2548e-003
386.681,53.95000, 2.2576e-003
387.068,54.01500, 2.2605e-003
387.441,54.08000, 2.2629e-003
387.818,54.14500, 2.2661e-003
388.195,54.21000, 2.2692e-003
388.579,54.27500, 2.2722e-003
388.952,54.34000, 2.2751e-003
389.334,54.40500, 2.2775e-003
389.715,54.47000, 2.2808e-003
390.083,54.53500, 2.2835e-003
390.466,54.60000, 2.2867e-003
390.835,54.66500, 2.2892e-003
391.22,54.73000, 2.2925e-003
391.595,54.79500, 2.2949e-003
391.971,54.86000, 2.2979e-003
392.347,54.92500, 2.3011e-003
392.718,54.99000, 2.3042e-003
393.103,55.05500, 2.3072e-003
393.472,55.12000, 2.3096e-003
393.846,55.18500, 2.3123e-003
394.223,55.25000, 2.3156e-003
394.597,55.31500, 2.3187e-003
394.972,55.38000, 2.3218e-003
395.344,55.44500, 2.3242e-003
395.722,55.51000, 2.3271e-003
396.093,55.57500, 2.3301e-003
396.47,55.64000, 2.3331e-003
396.844,55.70500, 2.3360e-003
397.214,55.77000, 2.3386e-003
397.589,55.83500, 2.3416e-003
397.963,55.90000, 2.3447e-003
398.339,55.96500, 2.3473e-003
398.712,56.03000, 2.3502e-003
399.081,56.09500, 2.3534e-003
399.457,56.16000, 2.3558e-003
399.828,56.22500, 2.3589e-003
400.206,56.29000, 2.3619e-003
400.571,56.35500, 2.3646e-003
400.941,56.42000, 2.3677e-003
401.312,56.48500, 2.3703e-003
401.683,56.55000, 2.3730e-003
402.057,56.61500, 2.3761e-003
402.43,56.68000, 2.3787e-003
402.802,56.74500, 2.3817e-003
403.173,56.81000, 2.3847e-003
403.535,56.87500, 2.3875e-003
403.899,56.94000, 2.3902e-003
404.275,57.00500, 2.3932e-003
404.645,57.07000, 2.3957e-003
405.011,57.13500, 2.3985e-003
405.384,57.20000, 2.4015e-003
405.761,57.26500, 2.4044e-003
406.127,57.33000, 2.4073e-003
406.496,57.39500, 2.4099e-003
406.866,57.46000, 2.4126e-003
407.239,57.52500, 2.4159e-003
407.606,57.59000, 2.4185e-003
407.978,57.65500, 2.4214e-003
408.346,57.72000, 2.4241e-003
408.717,57.78500, 2.4268e-003
409.079,57.85000, 2.4297e-003
409.453,57.91500, 2.4323e-003
409.817,57.98000, 2.4350e-003
410.188,58.04500, 2.4379e-003
410.552,58.11000, 2.4408e-003
410.923,58.17500, 2.4437e-003
411.296,58.24000, 2.4462e-003
411.66,58.30500, 2.4492e-003
412.028,58.37000, 2.4521e-003
412.399,58.43500, 2.4549e-003
412.768,58.50000, 2.4579e-003
413.136,58.56500, 2.4608e-003
413.501,58.63000, 2.4630e-003
413.869,58.69500, 2.4658e-003
414.233,58.76000, 2.4690e-003
414.595,58.82500, 2.4717e-003
414.96,58.89000, 2.4744e-003
415.325,58.95500, 2.4771e-003
415.696,59.02000, 2.4801e-003
416.06,59.08500, 2.4829e-003
416.429,59.15000, 2.4853e-003
416.792,59.21500, 2.4880e-003
417.154,59.28000, 2.4910e-003
417.527,59.34500, 2.4941e-003
417.891,59.41000, 2.4968e-003
418.261,59.47500, 2.4991e-003
418.625,59.54000, 2.5022e-003
418.987,59.60500, 2.5050e-003
419.352,59.67000, 2.5077e-003
419.725,59.73500, 2.5107e-003
420.093,59.80000, 2.5137e-003
420.449,59.86500, 2.5165e-003
420.807,59.93000, 2.5186e-003
421.172,59.99500, 2.5214e-003
421.539,60.06000, 2.5244e-003
421.897,60.12500, 2.5271e-003
422.26,60.19000, 2.5291e-003
422.62,60.25500, 2.5322e-003
422.983,60.32000, 2.5352e-003
423.351,60.38500, 2.5381e-003
423.71,60.45000, 2.5408e-003
424.078,60.51500, 2.5432e-003
424.441,60.58000, 2.5461e-003
424.799,60.64500, 2.5488e-003
425.159,60.71000, 2.5519e-003
425.522,60.77500, 2.5549e-003
425.884,60.84000, 2.5570e-003
426.247,60.90500, 2.5600e-003
426.608,60.97000, 2.5626e-003
426.967,61.03500, 2.5659e-003
427.331,61.10000, 2.5683e-003
427.696,61.16500, 2.5712e-003
428.055,61.23000, 2.5744e-003
428.418,61.29500, 2.5770e-003
428.774,61.36000, 2.5798e-003
429.139,61.42500, 2.5825e-003
429.502,61.49000, 2.5850e-003
429.86,61.55500, 2.5881e-003
430.221,61.62000, 2.5905e-003
430.578,61.68500, 2.5932e-003
430.94,61.75000, 2.5959e-003
431.301,61.81500, 2.5988e-003
431.653,61.88000, 2.6015e-003
432.021,61.94500, 2.6043e-003
432.376,62.01000, 2.6066e-003
432.736,62.07500, 2.6094e-003
433.093,62.14000, 2.6123e-003
433.451,62.20500, 2.6154e-003
433.815,62.27000, 2.6178e-003
434.172,62.33500, 2.6204e-003
434.527,62.40000, 2.6233e-003
434.883,62.46500, 2.6260e-003
435.239,62.53000, 2.6286e-003
435.602,62.59500, 2.6311e-003
435.956,62.66000, 2.6340e-003
436.315,62.72500, 2.6369e-003
436.678,62.79000, 2.6396e-003
437.034,62.85500, 2.6419e-003
437.393,62.92000, 2.6451e-003
437.752,62.98500, 2.6477e-003
438.111,63.05000, 2.6505e-003
438.465,63.11500, 2.6535e-003
438.826,63.18000, 2.6560e-003
439.177,63.24500, 2.6583e-003
439.533,63.31000, 2.6610e-003
439.888,63.37500, 2.6635e-003
440.248,63.44000, 2.6665e-003
440.6,63.50500, 2.6693e-003
440.952,63.57000, 2.6720e-003
441.307,63.63500, 2.6743e-003
441.665,63.70000, 2.6770e-003
442.02,63.76500, 2.6802e-003
442.378,63.83000, 2.6827e-003
442.727,63.89500, 2.6854e-003
443.079,63.96000, 2.6884e-003
443.447,64.02500, 2.6905e-003
443.801,64.09000, 2.6933e-003
444.154,64.15500, 2.6961e-003
444.51,64.22000, 2.6989e-003
444.862,64.28500, 2.7017e-003
445.212,64.35000, 2.7045e-003
445.569,64.41500, 2.7069e-003
445.924,64.48000, 2.7098e-003
446.275,64.54500, 2.7127e-003
446.626,64.61000, 2.7150e-003
446.983,64.67500, 2.7182e-003
447.33,64.74000, 2.7201e-003
447.682,64.80500, 2.7231e-003
448.031,64.87000, 2.7257e-003
448.384,64.93500, 2.7288e-003
448.735,65.00000, 2.7316e-003
449.095,65.06500, 2.7344e-003
449.446,65.13000, 2.7364e-003
449.801,65.19500, 2.7392e-003