File: data_backup/14.1mm-083019/moon0p2s2r2-15mm-102719.csv
#EXPORTTYPE:           ,DATA ALL                                                                                                                   ,,,,,,,
#FILE:                 ,moonstonS2p2ru2.ngb-sle                                                                                                    ,,,,,,,
#FORMAT:               ,NETZSCH5                                                                                                                   ,,,,,,,
#FTYPE:                ,ANSI                                                                                                                       ,,,,,,,
#IDENTITY:             ,fmu1 piece2                                                                                                                ,,,,,,,
#DECIMAL:              ,POINT                                                                                                                      ,,,,,,,
#SEPARATOR:            ,COMMA                                                                                                                      ,,,,,,,
#MTYPE:                ,DIL                                                                                                                        ,,,,,,,
#INSTRUMENT:           ,NETZSCH DIL 402C                                                                                                           ,,,,,,,
#PROJECT:              ,feldspar                                                                                                                   ,,,,,,,
#DATE/TIME:            ,10/27/2019 12:49:23 PM (UTC-5)                                                                                             ,,,,,,,
#CORR. FILE:           ,                                                                                                                           ,,,,,,,
#TEMPCAL:              ,TCALZERO.TMX                                                                                                               ,,,,,,,
#LABORATORY:           ,Mineral Physics                                                                                                            ,,,,,,,
#OPERATOR:             ,PAG                                                                                                                        ,,,,,,,
#REMARK:               ,bare, norm start, for bytown and rocks , long stnd, new thermocouple, new pushrod,ffresh cut of moonsone  orient 1, retry
#SAMPLE:               ,moonstone                                                                                                                  ,,,,,,,
#SAMPLE LENGTH /mm:    ,14.99,,,,,,,
#MATERIAL:             ,sapphire stnd                                                                                                              ,,,,,,,
#MEASMODE:             ,Standard Expansion                                                                                                         ,,,,,,,
#PURGE GAS 1:          ,ARGON                                                                                                                      ,,,,,,,
#FLOW RATE 1 /(ml/min):,75,,,,,,,
#M.RANGE /µm:          ,500,,,,,,,
#CORR. CODE:           ,10,,,,,,,
#RANGE:                ,20.0°C/3.0(K/min)/770.0°C                                                                                                  ,,,,,,,
#SEGMENT:              ,S1/1                                                                                                                       ,,,,,,,
#SEG. 1:               ,20.0°C/3.0(K/min)/770.0°C                                                                                                  ,,,,,,,
,,,,,,,,
##Temp./°C,Time/min,dL/Lo,,,,,,
22.064,0.00000000000,0.00001900200,,,,,,
22.072,0.15167,0.00002057700,,,,,,
22.085,0.30333,0.00002226300,,,,,,
22.079,0.455,0.00002291200,,,,,,
22.081,0.60667,0.00002356000,,,,,,
22.079,0.75833,0.00002395400,,,,,,
22.079,0.91,0.00002417900,,,,,,
22.075,1.06167,0.00002437600,,,,,,
22.066,1.21333,0.00002432800,,,,,,
22.066,1.365,0.00002422800,,,,,,
22.057,1.51667,0.00002371400,,,,,,
22.047,1.66833,0.00002317500,,,,,,
22.034,1.82,0.00002288200,,,,,,
22.026,1.97167,0.00002249100,,,,,,
22.033,2.12333,0.00002198300,,,,,,
22.022,2.275,0.00002137000,,,,,,
22.011,2.42667,0.00002086700,,,,,,
21.997,2.57833,0.00002017400,,,,,,
21.978,2.73,0.00001928000,,,,,,
21.961,2.88167,0.00001869100,,,,,,
21.954,3.03333,0.00001779900,,,,,,
21.967,3.185,0.00001698300,,,,,,
21.992,3.33667,0.00001581900,,,,,,
22.03,3.48833,0.00001468100,,,,,,
22.092,3.64,0.00001334000,,,,,,
22.186,3.79167,0.00001169300,,,,,,
22.304,3.94333,0.00000980160,,,,,,
22.461,4.095,0.00000762150,,,,,,
22.659,4.24667,0.00000533420,,,,,,
22.881,4.39833,0.00000296860,,,,,,
23.171,4.55,0.00000053895,,,,,,
23.488,4.70167,-0.00000199740,,,,,,
23.826,4.85333,-0.00000504190,,,,,,
24.232,5.005,-0.00000762440,,,,,,
24.666,5.15667,-0.00001015600,,,,,,
25.152,5.30833,-0.00001230600,,,,,,
25.668,5.46,-0.00001470700,,,,,,
26.224,5.61167,-0.00001657800,,,,,,
26.794,5.76333,-0.00001873200,,,,,,
27.409,5.915,-0.00002054400,,,,,,
28.03,6.06667,-0.00002303000,,,,,,
28.663,6.21833,-0.00002619400,,,,,,
29.34,6.37,-0.00003086800,,,,,,
30.039,6.52167,-0.00003900100,,,,,,
30.75,6.67333,-0.00005289900,,,,,,
31.461,6.825,-0.00007729500,,,,,,
32.179,6.97667,-0.00011103,,,,,,
32.91,7.12833,-0.00015132,,,,,,
33.637,7.28,-0.0001946,,,,,,
34.362,7.43167,-0.00023814,,,,,,
35.116,7.58333,-0.00028007,,,,,,
35.837,7.735,-0.00032109,,,,,,
36.577,7.88667,-0.00036053,,,,,,
37.319,8.03833,-0.00039965,,,,,,
38.05,8.19,-0.00043931,,,,,,
38.786,8.34167,-0.00047868,,,,,,
39.525,8.49333,-0.00051554,,,,,,
40.263,8.645,-0.00054995,,,,,,
41.006,8.79667,-0.00058419,,,,,,
41.742,8.94833,-0.00061841,,,,,,
42.477,9.1,-0.00065286,,,,,,
43.227,9.25167,-0.00068724,,,,,,
43.963,9.40333,-0.00072391,,,,,,
44.72,9.555,-0.00076295,,,,,,
45.466,9.70667,-0.00080153,,,,,,
46.211,9.85833,-0.00083682,,,,,,
46.98,10.01,-0.00086995,,,,,,
47.728,10.1617,-0.00090295,,,,,,
48.506,10.3133,-0.00093446,,,,,,
49.276,10.465,-0.00096571,,,,,,
50.051,10.6167,-0.00099869,,,,,,
50.831,10.7683,-0.0010302,,,,,,
51.607,10.92,-0.0010584,,,,,,
52.395,11.0717,-0.0010866,,,,,,
53.18,11.2233,-0.0011383,,,,,,
53.973,11.375,-0.001171,,,,,,
54.759,11.5267,-0.001199,,,,,,
55.557,11.6783,-0.0012231,,,,,,
56.362,11.83,-0.0012422,,,,,,
57.166,11.9817,-0.0012577,,,,,,
57.97,12.1333,-0.0012689,,,,,,
58.775,12.285,-0.0012777,,,,,,
59.577,12.4367,-0.0012834,,,,,,
60.389,12.5883,-0.0012865,,,,,,
61.186,12.74,-0.0012882,,,,,,
61.987,12.8917,-0.0012884,,,,,,
62.814,13.0433,-0.0012878,,,,,,
63.615,13.195,-0.0012859,,,,,,
64.422,13.3467,-0.0012841,,,,,,
65.215,13.4983,-0.001282,,,,,,
66.02,13.65,-0.0012796,,,,,,
66.816,13.8017,-0.0012766,,,,,,
67.613,13.9533,-0.0012729,,,,,,
68.402,14.105,-0.0012694,,,,,,
69.19,14.2567,-0.0012654,,,,,,
69.989,14.4083,-0.0012608,,,,,,
70.781,14.56,-0.001257,,,,,,
71.583,14.7117,-0.0012523,,,,,,
72.375,14.8633,-0.0012475,,,,,,
73.17,15.015,-0.0012426,,,,,,
73.97,15.1667,-0.0012376,,,,,,
74.77,15.3183,-0.0012328,,,,,,
75.535,15.47,-0.0012277,,,,,,
76.336,15.6217,-0.0012228,,,,,,
77.13,15.7733,-0.0012175,,,,,,
77.909,15.925,-0.0012125,,,,,,
78.69,16.0767,-0.0012072,,,,,,
79.482,16.2283,-0.0012019,,,,,,
80.264,16.38,-0.0011968,,,,,,
81.052,16.5317,-0.0011907,,,,,,
81.825,16.6833,-0.0011851,,,,,,
82.616,16.835,-0.0011796,,,,,,
83.394,16.9867,-0.0011742,,,,,,
84.169,17.1383,-0.0011691,,,,,,
84.945,17.29,-0.0011635,,,,,,
85.718,17.4417,-0.0011582,,,,,,
86.5,17.5933,-0.0011526,,,,,,
87.264,17.745,-0.0011472,,,,,,
88.038,17.8967,-0.0011415,,,,,,
88.808,18.0483,-0.0011359,,,,,,
89.577,18.2,-0.0011302,,,,,,
90.341,18.3517,-0.0011242,,,,,,
91.108,18.5033,-0.0011186,,,,,,
91.871,18.655,-0.0011125,,,,,,
92.644,18.8067,-0.0011064,,,,,,
93.403,18.9583,-0.0011007,,,,,,
94.167,19.11,-0.0010945,,,,,,
94.927,19.2617,-0.0010884,,,,,,
95.691,19.4133,-0.0010825,,,,,,
96.447,19.565,-0.0010765,,,,,,
97.207,19.7167,-0.0010704,,,,,,
97.96,19.8683,-0.0010643,,,,,,
98.707,20.02,-0.0010582,,,,,,
99.464,20.1717,-0.001052,,,,,,
100.211,20.3233,-0.0010456,,,,,,
100.971,20.475,-0.0010398,,,,,,
101.721,20.6267,-0.0010336,,,,,,
102.461,20.7783,-0.0010273,,,,,,
103.215,20.93,-0.0010209,,,,,,
103.964,21.0817,-0.0010149,,,,,,
104.709,21.2333,-0.0010085,,,,,,
105.459,21.385,-0.0010024,,,,,,
106.2,21.5367,-0.0009963,,,,,,
106.942,21.6883,-0.00099015,,,,,,
107.682,21.84,-0.00098362,,,,,,
108.422,21.9917,-0.00097726,,,,,,
109.165,22.1433,-0.00097092,,,,,,
109.898,22.295,-0.00096487,,,,,,
110.64,22.4467,-0.00095832,,,,,,
111.376,22.5983,-0.00095231,,,,,,
112.111,22.75,-0.00094615,,,,,,
112.855,22.9017,-0.00093974,,,,,,
113.594,23.0533,-0.00093341,,,,,,
114.32,23.205,-0.00092733,,,,,,
115.058,23.3567,-0.00092086,,,,,,
115.786,23.5083,-0.00091491,,,,,,
116.524,23.66,-0.00090833,,,,,,
117.256,23.8117,-0.00090187,,,,,,
117.994,23.9633,-0.00089565,,,,,,
118.709,24.115,-0.00088919,,,,,,
119.449,24.2667,-0.00088304,,,,,,
120.179,24.4183,-0.0008764,,,,,,
120.907,24.57,-0.00087036,,,,,,
121.642,24.7217,-0.00086396,,,,,,
122.362,24.8733,-0.00085778,,,,,,
123.087,25.025,-0.00085137,,,,,,
123.817,25.1767,-0.00084523,,,,,,
124.536,25.3283,-0.00083911,,,,,,
125.26,25.48,-0.00083272,,,,,,
125.995,25.6317,-0.00082627,,,,,,
126.722,25.7833,-0.00081978,,,,,,
127.447,25.935,-0.00081352,,,,,,
128.17,26.0867,-0.00080702,,,,,,
128.89,26.2383,-0.00080113,,,,,,
129.606,26.39,-0.00079473,,,,,,
130.33,26.5417,-0.00078873,,,,,,
131.049,26.6933,-0.00078228,,,,,,
131.767,26.845,-0.0007762,,,,,,
132.485,26.9967,-0.00076969,,,,,,
133.209,27.1483,-0.0007633,,,,,,
133.924,27.3,-0.00075707,,,,,,
134.637,27.4517,-0.0007508,,,,,,
135.345,27.6033,-0.00074467,,,,,,
136.066,27.755,-0.00073818,,,,,,
136.775,27.9067,-0.00073227,,,,,,
137.496,28.0583,-0.00072574,,,,,,
138.199,28.21,-0.00071952,,,,,,
138.915,28.3617,-0.00071355,,,,,,
139.62,28.5133,-0.00070718,,,,,,
140.328,28.665,-0.00070089,,,,,,
141.039,28.8167,-0.00069474,,,,,,
141.748,28.9683,-0.00068833,,,,,,
142.458,29.12,-0.00068222,,,,,,
143.165,29.2717,-0.00067603,,,,,,
143.877,29.4233,-0.00066971,,,,,,
144.579,29.575,-0.0006633,,,,,,
145.288,29.7267,-0.00065684,,,,,,
145.987,29.8783,-0.00065079,,,,,,
146.69,30.03,-0.00064442,,,,,,
147.393,30.1817,-0.00063819,,,,,,
148.1,30.3333,-0.00063171,,,,,,
148.797,30.485,-0.00062565,,,,,,
149.498,30.6367,-0.00061961,,,,,,
150.205,30.7883,-0.00061315,,,,,,
150.894,30.94,-0.00060691,,,,,,
151.595,31.0917,-0.00060044,,,,,,
152.297,31.2433,-0.0005942,,,,,,
152.997,31.395,-0.00058794,,,,,,
153.691,31.5467,-0.00058165,,,,,,
154.395,31.6983,-0.00057524,,,,,,
155.087,31.85,-0.0005688,,,,,,
155.781,32.0017,-0.00056265,,,,,,
156.479,32.1533,-0.00055591,,,,,,
157.183,32.305,-0.00054985,,,,,,
157.89,32.4567,-0.00054352,,,,,,
158.587,32.6083,-0.00053733,,,,,,
159.287,32.76,-0.00053086,,,,,,
159.969,32.9117,-0.00052476,,,,,,
160.651,33.0633,-0.00051863,,,,,,
161.35,33.215,-0.00051216,,,,,,
162.043,33.3667,-0.00050602,,,,,,
162.736,33.5183,-0.00049965,,,,,,
163.43,33.67,-0.00049343,,,,,,
164.12,33.8217,-0.00048698,,,,,,
164.805,33.9733,-0.0004807,,,,,,
165.494,34.125,-0.00047419,,,,,,
166.173,34.2767,-0.000468,,,,,,
166.865,34.4283,-0.00046177,,,,,,
167.56,34.58,-0.0004553,,,,,,
168.252,34.7317,-0.00044915,,,,,,
168.938,34.8833,-0.00044291,,,,,,
169.619,35.035,-0.00043661,,,,,,
170.309,35.1867,-0.00043045,,,,,,
170.981,35.3383,-0.00042403,,,,,,
171.672,35.49,-0.00041768,,,,,,
172.356,35.6417,-0.00041142,,,,,,
173.043,35.7933,-0.00040516,,,,,,
173.725,35.945,-0.00039886,,,,,,
174.395,36.0967,-0.00039286,,,,,,
175.078,36.2483,-0.00038628,,,,,,
175.749,36.4,-0.00038001,,,,,,
176.432,36.5517,-0.00037369,,,,,,
177.112,36.7033,-0.00036721,,,,,,
177.784,36.855,-0.00036123,,,,,,
178.459,37.0067,-0.00035498,,,,,,
179.136,37.1583,-0.00034824,,,,,,
179.812,37.31,-0.00034209,,,,,,
180.494,37.4617,-0.00033565,,,,,,
181.166,37.6133,-0.00032958,,,,,,
181.846,37.765,-0.00032309,,,,,,
182.522,37.9167,-0.00031694,,,,,,
183.188,38.0683,-0.00031056,,,,,,
183.872,38.22,-0.0003041,,,,,,
184.544,38.3717,-0.00029784,,,,,,
185.223,38.5233,-0.00029142,,,,,,
185.905,38.675,-0.00028512,,,,,,
186.573,38.8267,-0.0002786,,,,,,
187.25,38.9783,-0.00027238,,,,,,
187.925,39.13,-0.00026617,,,,,,
188.599,39.2817,-0.00025972,,,,,,
189.266,39.4333,-0.00025344,,,,,,
189.949,39.585,-0.00024694,,,,,,
190.624,39.7367,-0.00024061,,,,,,
191.286,39.8883,-0.00023434,,,,,,
191.957,40.04,-0.00022815,,,,,,
192.616,40.1917,-0.0002222,,,,,,
193.286,40.3433,-0.00021562,,,,,,
193.943,40.495,-0.00020949,,,,,,
194.612,40.6467,-0.00020301,,,,,,
195.267,40.7983,-0.00019666,,,,,,
195.934,40.95,-0.00019026,,,,,,
196.595,41.1017,-0.00018378,,,,,,
197.263,41.2533,-0.00017747,,,,,,
197.923,41.405,-0.0001712,,,,,,
198.58,41.5567,-0.00016497,,,,,,
199.243,41.7083,-0.00015841,,,,,,
199.903,41.86,-0.00015239,,,,,,
200.565,42.0117,-0.00014581,,,,,,
201.228,42.1633,-0.0001392,,,,,,
201.887,42.315,-0.0001329,,,,,,
202.552,42.4667,-0.00012653,,,,,,
203.205,42.6183,-0.00012024,,,,,,
203.861,42.77,-0.00011375,,,,,,
204.519,42.9217,-0.00010778,,,,,,
205.168,43.0733,-0.00010116,,,,,,
205.832,43.225,-0.00009516100,,,,,,
206.488,43.3767,-0.00008859300,,,,,,
207.136,43.5283,-0.00008242700,,,,,,
207.803,43.68,-0.00007582700,,,,,,
208.459,43.8317,-0.00006930200,,,,,,
209.112,43.9833,-0.00006291500,,,,,,
209.762,44.135,-0.00005655100,,,,,,
210.425,44.2867,-0.00005023900,,,,,,
211.075,44.4383,-0.00004365800,,,,,,
211.734,44.59,-0.00003729200,,,,,,
212.381,44.7417,-0.00003088200,,,,,,
213.02,44.8933,-0.00002497300,,,,,,
213.674,45.045,-0.00001869400,,,,,,
214.319,45.1967,-0.00001220500,,,,,,
214.964,45.3483,-0.00000576580,,,,,,
215.614,45.5,0.00000072851,,,,,,
216.259,45.6517,0.00000730300,,,,,,
216.897,45.8033,0.00001315100,,,,,,
217.541,45.955,0.00001952800,,,,,,
218.196,46.1067,0.00002589800,,,,,,
218.839,46.2583,0.00003245400,,,,,,
219.487,46.41,0.00003889000,,,,,,
220.132,46.5617,0.00004509700,,,,,,
220.769,46.7133,0.00005142100,,,,,,
221.413,46.865,0.00005780600,,,,,,
222.053,47.0167,0.00006431400,,,,,,
222.697,47.1683,0.00007072900,,,,,,
223.336,47.32,0.00007700800,,,,,,
223.974,47.4717,0.00008324000,,,,,,
224.617,47.6233,0.00008977800,,,,,,
225.255,47.775,0.00009630600,,,,,,
225.895,47.9267,0.00010254,,,,,,
226.529,48.0783,0.00010881,,,,,,
227.171,48.23,0.0001154,,,,,,
227.805,48.3817,0.00012182,,,,,,
228.435,48.5333,0.00012787,,,,,,
229.069,48.685,0.00013428,,,,,,
229.707,48.8367,0.00014083,,,,,,
230.337,48.9883,0.00014716,,,,,,
230.973,49.14,0.0001534,,,,,,
231.611,49.2917,0.00015991,,,,,,
232.246,49.4433,0.00016629,,,,,,
232.877,49.595,0.00017273,,,,,,
233.517,49.7467,0.00017888,,,,,,
234.146,49.8983,0.00018538,,,,,,
234.775,50.05,0.00019165,,,,,,
235.414,50.2017,0.00019803,,,,,,
236.042,50.3533,0.00020452,,,,,,
236.674,50.505,0.00021075,,,,,,
237.309,50.6567,0.00021682,,,,,,
237.938,50.8083,0.00022313,,,,,,
238.565,50.96,0.00022959,,,,,,
239.196,51.1117,0.00023615,,,,,,
239.823,51.2633,0.00024233,,,,,,
240.45,51.415,0.00024871,,,,,,
241.073,51.5667,0.00025522,,,,,,
241.703,51.7183,0.00026155,,,,,,
242.326,51.87,0.00026793,,,,,,
242.955,52.0217,0.00027418,,,,,,
243.582,52.1733,0.0002805,,,,,,
244.198,52.325,0.0002867,,,,,,
244.817,52.4767,0.00029314,,,,,,
245.437,52.6283,0.00029955,,,,,,
246.065,52.78,0.00030606,,,,,,
246.692,52.9317,0.00031229,,,,,,
247.31,53.0833,0.00031851,,,,,,
247.927,53.235,0.00032481,,,,,,
248.545,53.3867,0.00033119,,,,,,
249.169,53.5383,0.00033787,,,,,,
249.782,53.69,0.00034423,,,,,,
250.406,53.8417,0.0003506,,,,,,
251.021,53.9933,0.00035669,,,,,,
251.637,54.145,0.00036275,,,,,,
252.255,54.2967,0.00036918,,,,,,
252.868,54.4483,0.00037573,,,,,,
253.491,54.6,0.00038204,,,,,,
254.106,54.7517,0.00038846,,,,,,
254.718,54.9033,0.00039461,,,,,,
255.33,55.055,0.00040097,,,,,,
255.949,55.2067,0.00040742,,,,,,
256.558,55.3583,0.00041397,,,,,,
257.163,55.51,0.0004199,,,,,,
257.773,55.6617,0.00042628,,,,,,
258.377,55.8133,0.00043288,,,,,,
258.995,55.965,0.00043912,,,,,,
259.606,56.1167,0.00044565,,,,,,
260.213,56.2683,0.00045223,,,,,,
260.829,56.42,0.00045873,,,,,,
261.434,56.5717,0.00046531,,,,,,
262.052,56.7233,0.00047173,,,,,,
262.647,56.875,0.00047824,,,,,,
263.261,57.0267,0.0004846,,,,,,
263.872,57.1783,0.00049135,,,,,,
264.479,57.33,0.00049776,,,,,,
265.075,57.4817,0.00050422,,,,,,
265.688,57.6333,0.00051085,,,,,,
266.294,57.785,0.00051735,,,,,,
266.897,57.9367,0.00052382,,,,,,
267.507,58.0883,0.0005307,,,,,,
268.106,58.24,0.00053709,,,,,,
268.711,58.3917,0.00054358,,,,,,
269.314,58.5433,0.00055011,,,,,,
269.911,58.695,0.00055657,,,,,,
270.517,58.8467,0.00056324,,,,,,
271.118,58.9983,0.00056983,,,,,,
271.713,59.15,0.00057628,,,,,,
272.305,59.3017,0.00058281,,,,,,
272.914,59.4533,0.00058961,,,,,,
273.515,59.605,0.00059598,,,,,,
274.11,59.7567,0.00060234,,,,,,
274.707,59.9083,0.00060905,,,,,,
275.303,60.06,0.00061563,,,,,,
275.895,60.2117,0.00062217,,,,,,
276.499,60.3633,0.00062892,,,,,,
277.093,60.515,0.00063514,,,,,,
277.694,60.6667,0.00064169,,,,,,
278.297,60.8183,0.00064841,,,,,,
278.895,60.97,0.0006551,,,,,,
279.488,61.1217,0.00066189,,,,,,
280.082,61.2733,0.00066836,,,,,,
280.676,61.425,0.00067467,,,,,,
281.272,61.5767,0.0006815,,,,,,
281.871,61.7283,0.00068854,,,,,,
282.467,61.88,0.0006952,,,,,,
283.062,62.0317,0.00070189,,,,,,
283.655,62.1833,0.00070851,,,,,,
284.251,62.335,0.00071492,,,,,,
284.848,62.4867,0.00072155,,,,,,
285.435,62.6383,0.00072837,,,,,,
286.024,62.79,0.00073494,,,,,,
286.614,62.9417,0.00074173,,,,,,
287.205,63.0933,0.00074872,,,,,,
287.799,63.245,0.00075521,,,,,,
288.373,63.3967,0.00076198,,,,,,
288.973,63.5483,0.00076883,,,,,,
289.558,63.7,0.00077579,,,,,,
290.142,63.8517,0.00078298,,,,,,
290.73,64.0033,0.00078986,,,,,,
291.316,64.155,0.00079735,,,,,,
291.901,64.3067,0.00080409,,,,,,
292.489,64.4583,0.00081088,,,,,,
293.069,64.61,0.00081736,,,,,,
293.657,64.7617,0.00082415,,,,,,
294.235,64.9133,0.00083091,,,,,,
294.823,65.065,0.00083756,,,,,,
295.406,65.2167,0.0008443,,,,,,
295.989,65.3683,0.00085107,,,,,,
296.576,65.52,0.00085748,,,,,,
297.148,65.6717,0.00086439,,,,,,
297.736,65.8233,0.00087099,,,,,,
298.315,65.975,0.00087764,,,,,,
298.899,66.1267,0.00088451,,,,,,
299.474,66.2783,0.00089153,,,,,,
300.054,66.43,0.00089804,,,,,,
300.628,66.5817,0.00090357,,,,,,
301.209,66.7333,0.00091024,,,,,,
301.785,66.885,0.00091681,,,,,,
302.36,67.0367,0.00092391,,,,,,
302.938,67.1883,0.00093078,,,,,,
303.511,67.34,0.00093759,,,,,,
304.089,67.4917,0.00094446,,,,,,
304.667,67.6433,0.00095131,,,,,,
305.239,67.795,0.00095794,,,,,,
305.814,67.9467,0.00096518,,,,,,
306.383,68.0983,0.000973,,,,,,
306.957,68.25,0.00098195,,,,,,
307.538,68.4017,0.00099064,,,,,,
308.115,68.5533,0.00099742,,,,,,
308.676,68.705,0.0010043,,,,,,
309.256,68.8567,0.0010111,,,,,,
309.831,69.0083,0.0010181,,,,,,
310.409,69.16,0.0010249,,,,,,
310.974,69.3117,0.0010321,,,,,,
311.553,69.4633,0.0010388,,,,,,
312.124,69.615,0.0010462,,,,,,
312.695,69.7667,0.0010529,,,,,,
313.272,69.9183,0.0010595,,,,,,
313.831,70.07,0.0010662,,,,,,
314.399,70.2217,0.0010734,,,,,,
314.967,70.3733,0.00108,,,,,,
315.525,70.525,0.0010867,,,,,,
316.109,70.6767,0.0010937,,,,,,
316.681,70.8283,0.0011,,,,,,
317.251,70.98,0.0011064,,,,,,
317.819,71.1317,0.00061637,,,,,,
318.401,71.2833,0.00063334,,,,,,
318.993,71.435,0.00064015,,,,,,
319.571,71.5867,0.00064762,,,,,,
320.143,71.7383,0.00065506,,,,,,
320.71,71.89,0.00067238,,,,,,
321.275,72.0417,0.00067218,,,,,,
321.837,72.1933,0.00069258,,,,,,
322.404,72.345,0.00069822,,,,,,
322.97,72.4967,0.00072614,,,,,,
323.523,72.6483,0.00073112,,,,,,
324.087,72.8,0.00073798,,,,,,
324.648,72.9517,0.00074557,,,,,,
325.205,73.1033,0.00075256,,,,,,
325.769,73.255,0.00075909,,,,,,
326.328,73.4067,0.00076593,,,,,,
326.891,73.5583,0.00077303,,,,,,
327.455,73.71,0.00077783,,,,,,
328.003,73.8617,0.00081012,,,,,,
328.56,74.0133,0.00081571,,,,,,
329.128,74.165,0.00082215,,,,,,
329.678,74.3167,0.00090382,,,,,,
330.231,74.4683,0.0010035,,,,,,
330.788,74.62,0.001004,,,,,,
331.345,74.7717,0.0010079,,,,,,
331.895,74.9233,0.0010129,,,,,,
332.456,75.075,0.0010182,,,,,,
333.013,75.2267,0.0010239,,,,,,
333.562,75.3783,0.0010302,,,,,,
334.116,75.53,0.0010369,,,,,,
334.67,75.6817,0.0010497,,,,,,
335.226,75.8333,0.0010521,,,,,,
335.78,75.985,0.0010584,,,,,,
336.32,76.1367,0.0018362,,,,,,
336.866,76.2883,0.0018153,,,,,,
337.413,76.44,0.0018418,,,,,,
337.965,76.5917,0.0018394,,,,,,
338.521,76.7433,0.001847,,,,,,
339.065,76.895,0.0018461,,,,,,
339.618,77.0467,0.0018488,,,,,,
340.171,77.1983,0.0018529,,,,,,
340.715,77.35,0.0018576,,,,,,
341.268,77.5017,0.0018624,,,,,,
341.82,77.6533,0.0018666,,,,,,
342.368,77.805,0.0018715,,,,,,
342.926,77.9567,0.0020954,,,,,,
343.472,78.1083,0.0020746,,,,,,
344.022,78.26,0.0020749,,,,,,
344.563,78.4117,0.002078,,,,,,
345.129,78.5633,0.0020821,,,,,,
345.665,78.715,0.0020861,,,,,,
346.216,78.8667,0.0020902,,,,,,
346.76,79.0183,0.0020946,,,,,,
347.302,79.17,0.0021051,,,,,,
347.844,79.3217,0.0021046,,,,,,
348.391,79.4733,0.0021128,,,,,,
348.939,79.625,0.0021161,,,,,,
349.484,79.7767,0.0021432,,,,,,
350.023,79.9283,0.002151,,,,,,
350.572,80.08,0.0021529,,,,,,
351.112,80.2317,0.0021827,,,,,,
351.656,80.3833,0.0021694,,,,,,
352.202,80.535,0.0021802,,,,,,
352.742,80.6867,0.0021749,,,,,,
353.285,80.8383,0.0021794,,,,,,
353.827,80.99,0.0022764,,,,,,
354.357,81.1417,0.0022698,,,,,,
354.908,81.2933,0.0022706,,,,,,
355.45,81.445,0.0022742,,,,,,
355.989,81.5967,0.0022783,,,,,,
356.527,81.7483,0.0022815,,,,,,
357.072,81.9,0.002285,,,,,,
357.61,82.0517,0.0022927,,,,,,
358.146,82.2033,0.0022966,,,,,,
358.683,82.355,0.002299,,,,,,
359.215,82.5067,0.0023564,,,,,,
359.76,82.6583,0.0023538,,,,,,
360.302,82.81,0.0023622,,,,,,
360.838,82.9617,0.0023606,,,,,,
361.384,83.1133,0.0023649,,,,,,
361.914,83.265,0.0023681,,,,,,
362.453,83.4167,0.0023882,,,,,,
362.987,83.5683,0.0023815,,,,,,
363.519,83.72,0.0023866,,,,,,
364.056,83.8717,0.0023943,,,,,,
364.589,84.0233,0.0023981,,,,,,
365.13,84.175,0.0023995,,,,,,
365.664,84.3267,0.0024045,,,,,,
366.193,84.4783,0.0024084,,,,,,
366.729,84.63,0.0024134,,,,,,
367.261,84.7817,0.0024499,,,,,,
367.795,84.9333,0.0024448,,,,,,
368.333,85.085,0.0024466,,,,,,
368.868,85.2367,0.0024505,,,,,,
369.401,85.3883,0.0024543,,,,,,
369.937,85.54,0.0024598,,,,,,
370.465,85.6917,0.0024609,,,,,,
370.991,85.8433,0.0024659,,,,,,
371.526,85.995,0.0024814,,,,,,
372.066,86.1467,0.0024774,,,,,,
372.588,86.2983,0.0024814,,,,,,
373.124,86.45,0.002483,,,,,,
373.655,86.6017,0.0024888,,,,,,
374.186,86.7533,0.0025156,,,,,,
374.717,86.905,0.0025101,,,,,,
375.255,87.0567,0.0025102,,,,,,
375.777,87.2083,0.0025144,,,,,,
376.301,87.36,0.0025176,,,,,,
376.829,87.5117,0.0025208,,,,,,
377.359,87.6633,0.0025237,,,,,,
377.893,87.815,0.0025291,,,,,,
378.42,87.9667,0.0025325,,,,,,
378.947,88.1183,0.002537,,,,,,
379.467,88.27,0.0025491,,,,,,
379.997,88.4217,0.002548,,,,,,
380.52,88.5733,0.0025518,,,,,,
381.038,88.725,0.002556,,,,,,
381.563,88.8767,0.0025632,,,,,,
382.086,89.0283,0.0025761,,,,,,
382.619,89.18,0.0025775,,,,,,
383.131,89.3317,0.0025891,,,,,,
383.664,89.4833,0.0025905,,,,,,
384.189,89.635,0.0025945,,,,,,
384.716,89.7867,0.0026004,,,,,,
385.232,89.9383,0.0026035,,,,,,
385.752,90.09,0.0026082,,,,,,
386.273,90.2417,0.0026154,,,,,,
386.794,90.3933,0.0026214,,,,,,
387.319,90.545,0.0026243,,,,,,
387.837,90.6967,0.0026351,,,,,,
388.353,90.8483,0.002639,,,,,,
388.877,91,0.0026557,,,,,,
389.399,91.1517,0.0026561,,,,,,
389.922,91.3033,0.0026611,,,,,,
390.442,91.455,0.0026656,,,,,,
390.96,91.6067,0.0026702,,,,,,
391.482,91.7583,0.0026752,,,,,,
391.999,91.91,0.0026794,,,,,,
392.523,92.0617,0.0026846,,,,,,
393.035,92.2133,0.0026939,,,,,,
393.558,92.365,0.0026971,,,,,,
394.076,92.5167,0.0027018,,,,,,
394.6,92.6683,0.0027068,,,,,,
395.118,92.82,0.0027114,,,,,,
395.635,92.9717,0.0027157,,,,,,
396.15,93.1233,0.0027208,,,,,,
396.665,93.275,0.0027263,,,,,,
397.181,93.4267,0.0027305,,,,,,
397.697,93.5783,0.0027411,,,,,,
398.212,93.73,0.0027425,,,,,,
398.731,93.8817,0.002748,,,,,,
399.237,94.0333,0.0027522,,,,,,
399.752,94.185,0.0027569,,,,,,
400.266,94.3367,0.002762,,,,,,
400.782,94.4883,0.0027678,,,,,,
401.288,94.64,0.0027777,,,,,,
401.804,94.7917,0.0027816,,,,,,
402.311,94.9433,0.0027852,,,,,,
402.828,95.095,0.0027911,,,,,,
403.338,95.2467,0.0027972,,,,,,
403.85,95.3983,0.0028015,,,,,,
404.359,95.55,0.0028071,,,,,,
404.871,95.7017,0.0028146,,,,,,
405.386,95.8533,0.0028178,,,,,,
405.896,96.005,0.0028225,,,,,,
406.417,96.1567,0.0028286,,,,,,
406.916,96.3083,0.0028321,,,,,,
407.433,96.46,0.0028368,,,,,,
407.95,96.6117,0.0028421,,,,,,
408.466,96.7633,0.0028464,,,,,,
408.969,96.915,0.0028561,,,,,,
409.473,97.0667,0.0028585,,,,,,
409.981,97.2183,0.0028631,,,,,,
410.496,97.37,0.002868,,,,,,
411.004,97.5217,0.0028724,,,,,,
411.512,97.6733,0.0028772,,,,,,
412.021,97.825,0.0028819,,,,,,
412.524,97.9767,0.0028867,,,,,,
413.033,98.1283,0.002895,,,,,,
413.538,98.28,0.002898,,,,,,
414.051,98.4317,0.0029026,,,,,,
414.556,98.5833,0.0029069,,,,,,
415.057,98.735,0.0029114,,,,,,
415.562,98.8867,0.002916,,,,,,
416.069,99.0383,0.0029212,,,,,,
416.574,99.19,0.0029256,,,,,,
417.074,99.3417,0.0029302,,,,,,
417.586,99.4933,0.0029355,,,,,,
418.087,99.645,0.0029401,,,,,,
418.591,99.7967,0.0029448,,,,,,
419.092,99.9483,0.0029497,,,,,,
419.6,100.1,0.0029546,,,,,,
420.101,100.252,0.0029596,,,,,,
420.605,100.403,0.002964,,,,,,
421.106,100.555,0.0029692,,,,,,
421.611,100.707,0.0029739,,,,,,
422.115,100.858,0.0029792,,,,,,
422.612,101.01,0.0029878,,,,,,
423.111,101.162,0.002991,,,,,,
423.612,101.313,0.0029953,,,,,,
424.11,101.465,0.0030003,,,,,,
424.612,101.617,0.003006,,,,,,
425.116,101.768,0.0030097,,,,,,
425.613,101.92,0.0030147,,,,,,
426.122,102.072,0.0030191,,,,,,
426.624,102.223,0.0030243,,,,,,
427.126,102.375,0.0030288,,,,,,
427.625,102.527,0.0030336,,,,,,
428.123,102.678,0.0030387,,,,,,
428.62,102.83,0.0030433,,,,,,
429.119,102.982,0.0030484,,,,,,
429.616,103.133,0.0030536,,,,,,
430.118,103.285,0.0030587,,,,,,
430.616,103.437,0.0030643,,,,,,
431.112,103.588,0.0030688,,,,,,
431.609,103.74,0.003073,,,,,,
432.109,103.892,0.0030776,,,,,,
432.597,104.043,0.0030826,,,,,,
433.099,104.195,0.0030874,,,,,,
433.595,104.347,0.0030921,,,,,,
434.088,104.498,0.0030972,,,,,,
434.582,104.65,0.0031023,,,,,,
435.083,104.802,0.0031072,,,,,,
435.58,104.953,0.003112,,,,,,
436.074,105.105,0.0031182,,,,,,
436.56,105.257,0.0031225,,,,,,
437.055,105.408,0.0031272,,,,,,
437.549,105.56,0.0031319,,,,,,
438.044,105.712,0.003137,,,,,,
438.534,105.863,0.0031417,,,,,,
439.029,106.015,0.0031466,,,,,,
439.524,106.167,0.0031518,,,,,,
440.015,106.318,0.0031567,,,,,,
440.512,106.47,0.0031616,,,,,,
440.996,106.622,0.0031662,,,,,,
441.494,106.773,0.0031722,,,,,,
441.984,106.925,0.0031765,,,,,,
442.474,107.077,0.0031817,,,,,,
442.966,107.228,0.0031867,,,,,,
443.462,107.38,0.0031917,,,,,,
443.953,107.532,0.0031965,,,,,,
444.442,107.683,0.0032012,,,,,,
444.924,107.835,0.0032085,,,,,,
445.418,107.987,0.0032118,,,,,,
445.909,108.138,0.0032191,,,,,,
446.396,108.29,0.0032217,,,,,,
446.884,108.442,0.0032259,,,,,,
447.374,108.593,0.0032305,,,,,,
447.859,108.745,0.0032357,,,,,,
448.343,108.897,0.0032405,,,,,,
448.834,109.048,0.0032456,,,,,,
449.327,109.2,0.0032502,,,,,,
449.812,109.352,0.0032566,,,,,,
450.304,109.503,0.0032603,,,,,,
450.79,109.655,0.0032649,,,,,,
451.288,109.807,0.0032697,,,,,,
451.768,109.958,0.0032745,,,,,,
452.259,110.11,0.00328,,,,,,
452.748,110.262,0.0032846,,,,,,
453.232,110.413,0.0032896,,,,,,
453.716,110.565,0.0032944,,,,,,
454.202,110.717,0.0032993,,,,,,
454.693,110.868,0.0033041,,,,,,
455.166,111.02,0.0033089,,,,,,
455.656,111.172,0.0033141,,,,,,
456.141,111.323,0.0033188,,,,,,
456.626,111.475,0.0033238,,,,,,
457.11,111.627,0.0033287,,,,,,
457.592,111.778,0.0033334,,,,,,
458.08,111.93,0.0033384,,,,,,
458.564,112.082,0.0033435,,,,,,
459.046,112.233,0.0033484,,,,,,
459.529,112.385,0.0033533,,,,,,
460.012,112.537,0.0033583,,,,,,
460.497,112.688,0.003363,,,,,,
460.975,112.84,0.0033678,,,,,,
461.459,112.992,0.0033732,,,,,,
461.955,113.143,0.003378,,,,,,
462.429,113.295,0.0033826,,,,,,
462.912,113.447,0.0033874,,,,,,
463.393,113.598,0.0033924,,,,,,
463.878,113.75,0.0033972,,,,,,
464.364,113.902,0.0034025,,,,,,
464.844,114.053,0.0034075,,,,,,
465.32,114.205,0.003412,,,,,,
465.806,114.357,0.0034163,,,,,,
466.287,114.508,0.0034215,,,,,,
466.767,114.66,0.0034321,,,,,,
467.256,114.812,0.0034357,,,,,,
467.727,114.963,0.0034401,,,,,,
468.214,115.115,0.0034448,,,,,,
468.685,115.267,0.0034494,,,,,,
469.169,115.418,0.0034542,,,,,,
469.646,115.57,0.0034591,,,,,,
470.127,115.722,0.0034642,,,,,,
470.602,115.873,0.003469,,,,,,
471.077,116.025,0.0034737,,,,,,
471.555,116.177,0.0034782,,,,,,
472.026,116.328,0.0034829,,,,,,
472.509,116.48,0.0034879,,,,,,
472.979,116.632,0.0034927,,,,,,
473.459,116.783,0.0034975,,,,,,
473.921,116.935,0.0035023,,,,,,
474.4,117.087,0.0035096,,,,,,
474.877,117.238,0.0035147,,,,,,
475.356,117.39,0.0035183,,,,,,
475.826,117.542,0.0035228,,,,,,
476.305,117.693,0.0035272,,,,,,
476.778,117.845,0.0035316,,,,,,
477.25,117.997,0.0035368,,,,,,
477.724,118.148,0.0035415,,,,,,
478.199,118.3,0.0035461,,,,,,
478.676,118.452,0.0035512,,,,,,
479.156,118.603,0.0035561,,,,,,
479.633,118.755,0.0035607,,,,,,
480.107,118.907,0.0035658,,,,,,
480.577,119.058,0.0035707,,,,,,
481.053,119.21,0.0035757,,,,,,
481.529,119.362,0.0035804,,,,,,
481.999,119.513,0.0035853,,,,,,
482.471,119.665,0.0035902,,,,,,
482.948,119.817,0.0035952,,,,,,
483.417,119.968,0.0036001,,,,,,
483.886,120.12,0.0036049,,,,,,
484.358,120.272,0.0036096,,,,,,
484.83,120.423,0.0036145,,,,,,
485.3,120.575,0.0036198,,,,,,
485.773,120.727,0.0036244,,,,,,
486.246,120.878,0.0036299,,,,,,
486.711,121.03,0.0036346,,,,,,
487.178,121.182,0.0036397,,,,,,
487.653,121.333,0.0036449,,,,,,
488.117,121.485,0.0036497,,,,,,
488.579,121.637,0.0036547,,,,,,
489.05,121.788,0.0036598,,,,,,
489.522,121.94,0.0036648,,,,,,
489.984,122.092,0.0036699,,,,,,
490.449,122.243,0.003675,,,,,,
490.91,122.395,0.0036802,,,,,,
491.37,122.547,0.0036852,,,,,,
491.83,122.698,0.0036906,,,,,,
492.289,122.85,0.0036957,,,,,,
492.749,123.002,0.0037006,,,,,,
493.207,123.153,0.0037056,,,,,,
493.663,123.305,0.0037106,,,,,,
494.12,123.457,0.0037158,,,,,,
494.573,123.608,0.0037206,,,,,,
495.033,123.76,0.0037263,,,,,,
495.487,123.912,0.0037309,,,,,,
495.944,124.063,0.0037358,,,,,,
496.399,124.215,0.0037404,,,,,,
496.853,124.367,0.003745,,,,,,
497.317,124.518,0.0037499,,,,,,
497.778,124.67,0.0037546,,,,,,
498.243,124.822,0.0037591,,,,,,
498.702,124.973,0.0037635,,,,,,
499.173,125.125,0.0037682,,,,,,
499.642,125.277,0.0037727,,,,,,
500.113,125.428,0.0037775,,,,,,
500.59,125.58,0.003782,,,,,,
501.062,125.732,0.0037865,,,,,,
501.544,125.883,0.0037914,,,,,,
502.024,126.035,0.0037959,,,,,,
502.5,126.187,0.0038006,,,,,,
502.991,126.338,0.0038052,,,,,,
503.467,126.49,0.00381,,,,,,
503.949,126.642,0.0038146,,,,,,
504.431,126.793,0.0038193,,,,,,
504.917,126.945,0.0038244,,,,,,
505.405,127.097,0.003829,,,,,,
505.886,127.248,0.003834,,,,,,
506.369,127.4,0.0038386,,,,,,
506.845,127.552,0.0038437,,,,,,
507.329,127.703,0.0038486,,,,,,
507.807,127.855,0.0038533,,,,,,
508.288,128.007,0.0038584,,,,,,
508.757,128.158,0.003863,,,,,,
509.238,128.31,0.0038685,,,,,,
509.718,128.462,0.0038732,,,,,,
510.191,128.613,0.0038783,,,,,,
510.662,128.765,0.0038829,,,,,,
511.129,128.917,0.003888,,,,,,
511.606,129.068,0.0038929,,,,,,
512.078,129.22,0.0038978,,,,,,
512.547,129.372,0.0039027,,,,,,
513.023,129.523,0.0039077,,,,,,
513.497,129.675,0.0039126,,,,,,
513.957,129.827,0.0039172,,,,,,
514.429,129.978,0.0039227,,,,,,
514.896,130.13,0.0039273,,,,,,
515.37,130.282,0.0039324,,,,,,
515.833,130.433,0.003937,,,,,,
516.302,130.585,0.0039419,,,,,,
516.764,130.737,0.0039467,,,,,,
517.235,130.888,0.0039515,,,,,,
517.7,131.04,0.0039566,,,,,,
518.156,131.192,0.0039613,,,,,,
518.625,131.343,0.003966,,,,,,
519.084,131.495,0.003971,,,,,,
519.555,131.647,0.0039761,,,,,,
520.014,131.798,0.003981,,,,,,
520.477,131.95,0.0039857,,,,,,
520.945,132.102,0.003991,,,,,,
521.408,132.253,0.0039955,,,,,,
521.862,132.405,0.0040001,,,,,,
522.322,132.557,0.0040048,,,,,,
522.781,132.708,0.0040098,,,,,,
523.247,132.86,0.0040146,,,,,,
523.702,133.012,0.0040194,,,,,,
524.167,133.163,0.0040244,,,,,,
524.612,133.315,0.0040291,,,,,,
525.075,133.467,0.0040341,,,,,,
525.53,133.618,0.0040388,,,,,,
525.99,133.77,0.0040434,,,,,,
526.441,133.922,0.0040486,,,,,,
526.891,134.073,0.0040532,,,,,,
527.349,134.225,0.0040582,,,,,,
527.806,134.377,0.004063,,,,,,
528.257,134.528,0.0040677,,,,,,
528.713,134.68,0.0040723,,,,,,
529.167,134.832,0.0040773,,,,,,
529.621,134.983,0.0040818,,,,,,
530.073,135.135,0.0040866,,,,,,
530.526,135.287,0.0040914,,,,,,
530.984,135.438,0.0040963,,,,,,
531.44,135.59,0.0041009,,,,,,
531.894,135.742,0.0041066,,,,,,
532.346,135.893,0.0041112,,,,,,
532.794,136.045,0.0041161,,,,,,
533.258,136.197,0.0041211,,,,,,
533.71,136.348,0.0041257,,,,,,
534.159,136.5,0.0041301,,,,,,
534.608,136.652,0.004135,,,,,,
535.061,136.803,0.0041399,,,,,,
535.513,136.955,0.0041445,,,,,,
535.966,137.107,0.004149,,,,,,
536.412,137.258,0.0041537,,,,,,
536.867,137.41,0.0041587,,,,,,
537.319,137.562,0.0041637,,,,,,
537.77,137.713,0.0041682,,,,,,
538.213,137.865,0.0041728,,,,,,
538.668,138.017,0.0041777,,,,,,
539.109,138.168,0.0041824,,,,,,
539.558,138.32,0.0041867,,,,,,
540.003,138.472,0.0041916,,,,,,
540.452,138.623,0.0041963,,,,,,
540.894,138.775,0.0042009,,,,,,
541.346,138.927,0.004206,,,,,,
541.792,139.078,0.0042106,,,,,,
542.241,139.23,0.0042154,,,,,,
542.683,139.382,0.0042203,,,,,,
543.135,139.533,0.004225,,,,,,
543.592,139.685,0.00423,,,,,,
544.034,139.837,0.0042348,,,,,,
544.485,139.988,0.0042396,,,,,,
544.932,140.14,0.0042444,,,,,,
545.382,140.292,0.0042491,,,,,,
545.828,140.443,0.0042536,,,,,,
546.266,140.595,0.0042583,,,,,,
546.714,140.747,0.0042632,,,,,,
547.164,140.898,0.0042677,,,,,,
547.61,141.05,0.0042725,,,,,,
548.062,141.202,0.0042774,,,,,,
548.507,141.353,0.004282,,,,,,
548.952,141.505,0.0042865,,,,,,
549.398,141.657,0.0042914,,,,,,
549.851,141.808,0.0042963,,,,,,
550.298,141.96,0.0043007,,,,,,
550.745,142.112,0.0043055,,,,,,
551.189,142.263,0.0043101,,,,,,
551.634,142.415,0.0043149,,,,,,
552.08,142.567,0.0043195,,,,,,
552.528,142.718,0.0043245,,,,,,
552.973,142.87,0.0043292,,,,,,
553.42,143.022,0.0043336,,,,,,
553.87,143.173,0.0043387,,,,,,
554.312,143.325,0.0043435,,,,,,
554.758,143.477,0.004348,,,,,,
555.199,143.628,0.0043529,,,,,,
555.645,143.78,0.0043578,,,,,,
556.09,143.932,0.0043623,,,,,,
556.537,144.083,0.0043671,,,,,,
556.983,144.235,0.0043718,,,,,,
557.425,144.387,0.0043762,,,,,,
557.867,144.538,0.0043809,,,,,,
558.314,144.69,0.0043859,,,,,,
558.761,144.842,0.0043905,,,,,,
559.203,144.993,0.0043949,,,,,,
559.649,145.145,0.0043997,,,,,,
560.092,145.297,0.0044048,,,,,,
560.539,145.448,0.0044093,,,,,,
560.982,145.6,0.0044142,,,,,,
561.428,145.752,0.0044185,,,,,,
561.873,145.903,0.0044233,,,,,,
562.313,146.055,0.004428,,,,,,
562.748,146.207,0.0044324,,,,,,
563.199,146.358,0.0044373,,,,,,
563.635,146.51,0.004442,,,,,,
564.079,146.662,0.0044467,,,,,,
564.523,146.813,0.0044514,,,,,,
564.96,146.965,0.0044561,,,,,,
565.399,147.117,0.0044604,,,,,,
565.841,147.268,0.0044651,,,,,,
566.288,147.42,0.0044699,,,,,,
566.727,147.572,0.0044745,,,,,,
567.169,147.723,0.0044792,,,,,,
567.611,147.875,0.0044839,,,,,,
568.055,148.027,0.0044885,,,,,,
568.496,148.178,0.0044931,,,,,,
568.943,148.33,0.0044977,,,,,,
569.38,148.482,0.0045022,,,,,,
569.827,148.633,0.0045069,,,,,,
570.271,148.785,0.0045148,,,,,,
570.71,148.937,0.0045272,,,,,,
571.152,149.088,0.0045307,,,,,,
571.593,149.24,0.0045345,,,,,,
572.035,149.392,0.0045384,,,,,,
572.48,149.543,0.0045422,,,,,,
572.922,149.695,0.0045463,,,,,,
573.364,149.847,0.0045505,,,,,,
573.807,149.998,0.0045546,,,,,,
574.247,150.15,0.0045588,,,,,,
574.688,150.302,0.0045631,,,,,,
575.131,150.453,0.0045675,,,,,,
575.575,150.605,0.0045723,,,,,,
576.013,150.757,0.0045767,,,,,,
576.448,150.908,0.0045814,,,,,,
576.892,151.06,0.004586,,,,,,
577.329,151.212,0.0045903,,,,,,
577.77,151.363,0.004595,,,,,,
578.212,151.515,0.0045996,,,,,,
578.65,151.667,0.0046044,,,,,,
579.089,151.818,0.0046087,,,,,,
579.537,151.97,0.0046136,,,,,,
579.97,152.122,0.0046195,,,,,,
580.406,152.273,0.0046233,,,,,,
580.849,152.425,0.0046278,,,,,,
581.287,152.577,0.0046327,,,,,,
581.722,152.728,0.0046374,,,,,,
582.158,152.88,0.0046417,,,,,,
582.596,153.032,0.0046466,,,,,,
583.036,153.183,0.0046514,,,,,,
583.48,153.335,0.0046561,,,,,,
583.916,153.487,0.004661,,,,,,
584.346,153.638,0.0046659,,,,,,
584.785,153.79,0.0046707,,,,,,
585.222,153.942,0.0046753,,,,,,
585.666,154.093,0.0046798,,,,,,
586.102,154.245,0.0046844,,,,,,
586.54,154.397,0.0046891,,,,,,
586.979,154.548,0.0046939,,,,,,
587.42,154.7,0.0046987,,,,,,
587.854,154.852,0.0047033,,,,,,
588.29,155.003,0.0047083,,,,,,
588.728,155.155,0.0047127,,,,,,
589.165,155.307,0.0047174,,,,,,
589.6,155.458,0.0047219,,,,,,
590.041,155.61,0.0047268,,,,,,
590.475,155.762,0.0047316,,,,,,
590.915,155.913,0.0047366,,,,,,
591.349,156.065,0.004741,,,,,,
591.786,156.217,0.0047462,,,,,,
592.215,156.368,0.0047508,,,,,,
592.655,156.52,0.0047556,,,,,,
593.091,156.672,0.0047603,,,,,,
593.524,156.823,0.004765,,,,,,
593.965,156.975,0.0047696,,,,,,
594.399,157.127,0.0047743,,,,,,
594.834,157.278,0.004779,,,,,,
595.266,157.43,0.0047838,,,,,,
595.696,157.582,0.0047887,,,,,,
596.136,157.733,0.0047934,,,,,,
596.566,157.885,0.0047983,,,,,,
596.999,158.037,0.0048029,,,,,,
597.434,158.188,0.0048076,,,,,,
597.87,158.34,0.0048126,,,,,,
598.303,158.492,0.0048173,,,,,,
598.742,158.643,0.0048222,,,,,,
599.182,158.795,0.0048268,,,,,,
599.614,158.947,0.0048318,,,,,,
600.05,159.098,0.0048364,,,,,,
600.487,159.25,0.0048409,,,,,,
600.922,159.402,0.0048458,,,,,,
601.351,159.553,0.0048505,,,,,,
601.781,159.705,0.0048555,,,,,,
602.222,159.857,0.0048607,,,,,,
602.648,160.008,0.0048655,,,,,,
603.081,160.16,0.0048701,,,,,,
603.503,160.312,0.0048747,,,,,,
603.934,160.463,0.0048794,,,,,,
604.36,160.615,0.0048847,,,,,,
604.785,160.767,0.0048899,,,,,,
605.213,160.918,0.004895,,,,,,
605.642,161.07,0.0049,,,,,,
606.066,161.222,0.0049057,,,,,,
606.488,161.373,0.0049104,,,,,,
606.911,161.525,0.0049155,,,,,,
607.34,161.677,0.0049203,,,,,,
607.76,161.828,0.0049255,,,,,,
608.177,161.98,0.0049305,,,,,,
608.596,162.132,0.0049355,,,,,,
609.019,162.283,0.0049404,,,,,,
609.431,162.435,0.0049452,,,,,,
609.85,162.587,0.0049498,,,,,,
610.271,162.738,0.0049547,,,,,,
610.694,162.89,0.0049593,,,,,,
611.126,163.042,0.0049641,,,,,,
611.543,163.193,0.0049688,,,,,,
611.966,163.345,0.0049734,,,,,,
612.395,163.497,0.0049779,,,,,,
612.826,163.648,0.0049825,,,,,,
613.257,163.8,0.0049868,,,,,,
613.689,163.952,0.0049914,,,,,,
614.124,164.103,0.004996,,,,,,
614.569,164.255,0.0050008,,,,,,
615.013,164.407,0.0050058,,,,,,
615.443,164.558,0.0050102,,,,,,
615.889,164.71,0.0050151,,,,,,
616.333,164.862,0.0050196,,,,,,
616.785,165.013,0.0050247,,,,,,
617.225,165.165,0.005029,,,,,,
617.669,165.317,0.0050339,,,,,,
618.119,165.468,0.0050387,,,,,,
618.563,165.62,0.0050434,,,,,,
619.01,165.772,0.0050484,,,,,,
619.455,165.923,0.0050532,,,,,,
619.899,166.075,0.0050581,,,,,,
620.335,166.227,0.0050629,,,,,,
620.776,166.378,0.0050676,,,,,,
621.221,166.53,0.0050725,,,,,,
621.661,166.682,0.0050774,,,,,,
622.102,166.833,0.0050823,,,,,,
622.533,166.985,0.0050868,,,,,,
622.974,167.137,0.0050916,,,,,,
623.406,167.288,0.0050964,,,,,,
623.848,167.44,0.0051012,,,,,,
624.285,167.592,0.0051061,,,,,,
624.719,167.743,0.0051109,,,,,,
625.159,167.895,0.0051158,,,,,,
625.59,168.047,0.0051203,,,,,,
626.03,168.198,0.005125,,,,,,
626.464,168.35,0.0051298,,,,,,
626.898,168.502,0.0051345,,,,,,
627.328,168.653,0.0051395,,,,,,
627.76,168.805,0.0051444,,,,,,
628.194,168.957,0.0051493,,,,,,
628.624,169.108,0.0051543,,,,,,
629.057,169.26,0.0051592,,,,,,
629.488,169.412,0.0051639,,,,,,
629.918,169.563,0.0051685,,,,,,
630.345,169.715,0.0051732,,,,,,
630.777,169.867,0.0051779,,,,,,
631.209,170.018,0.0051828,,,,,,
631.636,170.17,0.0051878,,,,,,
632.07,170.322,0.0051925,,,,,,
632.501,170.473,0.0051974,,,,,,
632.926,170.625,0.0052021,,,,,,
633.356,170.777,0.005207,,,,,,
633.78,170.928,0.0052116,,,,,,
634.201,171.08,0.0052164,,,,,,
634.632,171.232,0.0052212,,,,,,
635.057,171.383,0.005226,,,,,,
635.484,171.535,0.0052309,,,,,,
635.914,171.687,0.0052358,,,,,,
636.341,171.838,0.0052407,,,,,,
636.769,171.99,0.0052456,,,,,,
637.204,172.142,0.0052502,,,,,,
637.619,172.293,0.0052549,,,,,,
638.044,172.445,0.0052599,,,,,,
638.468,172.597,0.0052649,,,,,,
638.899,172.748,0.0052692,,,,,,
639.312,172.9,0.005274,,,,,,
639.736,173.052,0.0052787,,,,,,
640.157,173.203,0.0052834,,,,,,
640.586,173.355,0.0052883,,,,,,
641.001,173.507,0.0052928,,,,,,
641.424,173.658,0.0052975,,,,,,
641.853,173.81,0.0053023,,,,,,
642.272,173.962,0.005307,,,,,,
642.701,174.113,0.0053119,,,,,,
643.12,174.265,0.0053164,,,,,,
643.547,174.417,0.0053215,,,,,,
643.974,174.568,0.0053266,,,,,,
644.402,174.72,0.0053313,,,,,,
644.826,174.872,0.0053354,,,,,,
645.236,175.023,0.0053401,,,,,,
645.668,175.175,0.0053451,,,,,,
646.088,175.327,0.0053498,,,,,,
646.502,175.478,0.0053544,,,,,,
646.92,175.63,0.0053591,,,,,,
647.346,175.782,0.0053642,,,,,,
647.773,175.933,0.0053692,,,,,,
648.195,176.085,0.0053736,,,,,,
648.611,176.237,0.0053783,,,,,,
649.026,176.388,0.0053829,,,,,,
649.447,176.54,0.0053875,,,,,,
649.87,176.692,0.0053924,,,,,,
650.285,176.843,0.005397,,,,,,
650.703,176.995,0.0054018,,,,,,
651.12,177.147,0.0054063,,,,,,
651.545,177.298,0.0054111,,,,,,
651.962,177.45,0.0054159,,,,,,
652.383,177.602,0.0054203,,,,,,
652.8,177.753,0.0054249,,,,,,
653.214,177.905,0.0054293,,,,,,
653.637,178.057,0.0054342,,,,,,
654.054,178.208,0.005439,,,,,,
654.472,178.36,0.0054438,,,,,,
654.883,178.512,0.0054487,,,,,,
655.305,178.663,0.0054531,,,,,,
655.718,178.815,0.0054577,,,,,,
656.135,178.967,0.0054622,,,,,,
656.548,179.118,0.0054668,,,,,,
656.966,179.27,0.0054716,,,,,,
657.395,179.422,0.0054764,,,,,,
657.812,179.573,0.0054811,,,,,,
658.226,179.725,0.005486,,,,,,
658.649,179.877,0.0054905,,,,,,
659.062,180.028,0.0054952,,,,,,
659.482,180.18,0.0054998,,,,,,
659.894,180.332,0.0055043,,,,,,
660.313,180.483,0.005509,,,,,,
660.727,180.635,0.0055136,,,,,,
661.147,180.787,0.0055181,,,,,,
661.563,180.938,0.0055227,,,,,,
661.985,181.09,0.0055271,,,,,,
662.398,181.242,0.0055318,,,,,,
662.815,181.393,0.0055368,,,,,,
663.232,181.545,0.0055415,,,,,,
663.648,181.697,0.005546,,,,,,
664.065,181.848,0.0055504,,,,,,
664.473,182,0.0055549,,,,,,
664.89,182.152,0.0055596,,,,,,
665.312,182.303,0.0055644,,,,,,
665.723,182.455,0.0055693,,,,,,
666.14,182.607,0.0055737,,,,,,
666.551,182.758,0.0055781,,,,,,
666.964,182.91,0.0055827,,,,,,
667.379,183.062,0.0055875,,,,,,
667.794,183.213,0.0055922,,,,,,
668.206,183.365,0.005597,,,,,,
668.618,183.517,0.0056012,,,,,,
669.033,183.668,0.0056058,,,,,,
669.446,183.82,0.0056107,,,,,,
669.862,183.972,0.0056152,,,,,,
670.277,184.123,0.00562,,,,,,
670.692,184.275,0.0056245,,,,,,
671.104,184.427,0.0056292,,,,,,
671.519,184.578,0.0056338,,,,,,
671.938,184.73,0.0056383,,,,,,
672.352,184.882,0.005644,,,,,,
672.767,185.033,0.0056483,,,,,,
673.18,185.185,0.0056525,,,,,,
673.595,185.337,0.0056575,,,,,,
674.01,185.488,0.0056618,,,,,,
674.424,185.64,0.0056666,,,,,,
674.839,185.792,0.0056711,,,,,,
675.249,185.943,0.0056759,,,,,,
675.663,186.095,0.0056806,,,,,,
676.065,186.247,0.0056924,,,,,,
676.48,186.398,0.0056967,,,,,,
676.89,186.55,0.0057004,,,,,,
677.298,186.702,0.0057045,,,,,,
677.713,186.853,0.0057091,,,,,,
678.123,187.005,0.0057132,,,,,,
678.537,187.157,0.0057243,,,,,,
678.949,187.308,0.0057276,,,,,,
679.357,187.46,0.0057317,,,,,,
679.765,187.612,0.0057359,,,,,,
680.167,187.763,0.0057414,,,,,,
680.579,187.915,0.0057456,,,,,,
680.992,188.067,0.0057498,,,,,,
681.399,188.218,0.0057543,,,,,,
681.807,188.37,0.0057588,,,,,,
682.223,188.522,0.0057631,,,,,,
682.635,188.673,0.0057675,,,,,,
683.045,188.825,0.0057723,,,,,,
683.461,188.977,0.0057767,,,,,,
683.861,189.128,0.0057814,,,,,,
684.28,189.28,0.0057859,,,,,,
684.686,189.432,0.0057906,,,,,,
685.092,189.583,0.0057953,,,,,,
685.496,189.735,0.0057996,,,,,,
685.902,189.887,0.0058043,,,,,,
686.308,190.038,0.0058087,,,,,,
686.716,190.19,0.0058131,,,,,,
687.116,190.342,0.0058178,,,,,,
687.521,190.493,0.005822,,,,,,
687.924,190.645,0.005827,,,,,,
688.329,190.797,0.0058321,,,,,,
688.731,190.948,0.0058364,,,,,,
689.133,191.1,0.0058411,,,,,,
689.531,191.252,0.0058454,,,,,,
689.934,191.403,0.00585,,,,,,
690.33,191.555,0.0058541,,,,,,
690.732,191.707,0.0058586,,,,,,
691.133,191.858,0.0058632,,,,,,
691.533,192.01,0.0058674,,,,,,
691.938,192.162,0.005872,,,,,,
692.341,192.313,0.0058764,,,,,,
692.742,192.465,0.0058808,,,,,,
693.145,192.617,0.0058854,,,,,,
693.548,192.768,0.0058901,,,,,,
693.949,192.92,0.0058946,,,,,,
694.347,193.072,0.0058989,,,,,,
694.751,193.223,0.0059043,,,,,,
695.146,193.375,0.0059088,,,,,,
695.546,193.527,0.005913,,,,,,
695.941,193.678,0.0059175,,,,,,
696.333,193.83,0.0059223,,,,,,
696.724,193.982,0.0059268,,,,,,
697.116,194.133,0.0059318,,,,,,
697.51,194.285,0.0059364,,,,,,
697.903,194.437,0.0059411,,,,,,
698.286,194.588,0.0059458,,,,,,
698.669,194.74,0.005951,,,,,,
699.055,194.892,0.0059548,,,,,,
699.44,195.043,0.0059592,,,,,,
699.832,195.195,0.0059638,,,,,,
700.217,195.347,0.0059681,,,,,,
700.603,195.498,0.0059722,,,,,,
700.989,195.65,0.0059767,,,,,,
701.375,195.802,0.0059814,,,,,,
701.762,195.953,0.0059856,,,,,,
702.159,196.105,0.00599,,,,,,
702.553,196.257,0.0059944,,,,,,
702.949,196.408,0.0059986,,,,,,
703.346,196.56,0.0060027,,,,,,
703.747,196.712,0.0060068,,,,,,
704.154,196.863,0.0060093,,,,,,
704.555,197.015,0.0060131,,,,,,
704.963,197.167,0.0060179,,,,,,
705.372,197.318,0.0060216,,,,,,
705.782,197.47,0.0060259,,,,,,
706.193,197.622,0.0060301,,,,,,
706.609,197.773,0.006034,,,,,,
707.024,197.925,0.0060381,,,,,,
707.43,198.077,0.0060427,,,,,,
707.851,198.228,0.0060468,,,,,,
708.268,198.38,0.0060511,,,,,,
708.687,198.532,0.0060553,,,,,,
709.103,198.683,0.0060595,,,,,,
709.513,198.835,0.0060637,,,,,,
709.934,198.987,0.0060678,,,,,,
710.356,199.138,0.0060724,,,,,,
710.764,199.29,0.0060767,,,,,,
711.181,199.442,0.0060815,,,,,,
711.601,199.593,0.0060857,,,,,,
712.013,199.745,0.0060898,,,,,,
712.427,199.897,0.0060943,,,,,,
712.833,200.048,0.0060986,,,,,,
713.241,200.2,0.0061026,,,,,,
713.657,200.352,0.0061068,,,,,,
714.064,200.503,0.0061114,,,,,,
714.476,200.655,0.0061157,,,,,,
714.887,200.807,0.00612,,,,,,
715.299,200.958,0.0061244,,,,,,
715.707,201.11,0.0061288,,,,,,
716.126,201.262,0.0061331,,,,,,
716.536,201.413,0.0061379,,,,,,
716.942,201.565,0.0061523,,,,,,
717.348,201.717,0.0061523,,,,,,
717.762,201.868,0.0061556,,,,,,
718.133,202.02,0.0061587,,,,,,
718.537,202.172,0.0061607,,,,,,
718.949,202.323,0.0061658,,,,,,
719.355,202.475,0.0061757,,,,,,
719.76,202.627,0.0061811,,,,,,
720.166,202.778,0.0061851,,,,,,
720.576,202.93,0.0061895,,,,,,
720.989,203.082,0.0061936,,,,,,
721.395,203.233,0.0061978,,,,,,
721.797,203.385,0.006202,,,,,,
722.209,203.537,0.0062064,,,,,,
722.615,203.688,0.0062104,,,,,,
723.019,203.84,0.0062147,,,,,,
723.423,203.992,0.006219,,,,,,
723.825,204.143,0.0062233,,,,,,
724.231,204.295,0.0062275,,,,,,
724.636,204.447,0.0062321,,,,,,
725.04,204.598,0.0062361,,,,,,
725.45,204.75,0.0062398,,,,,,
725.852,204.902,0.006244,,,,,,
726.264,205.053,0.0062487,,,,,,
726.669,205.205,0.006253,,,,,,
727.069,205.357,0.0062563,,,,,,
727.47,205.508,0.0062603,,,,,,
727.873,205.66,0.0062644,,,,,,
728.269,205.812,0.0062687,,,,,,
728.665,205.963,0.0062723,,,,,,
729.068,206.115,0.0062765,,,,,,
729.468,206.267,0.0062808,,,,,,
729.873,206.418,0.006285,,,,,,
730.265,206.57,0.0062891,,,,,,
730.654,206.722,0.0062932,,,,,,
731.06,206.873,0.0062974,,,,,,
731.458,207.025,0.0063017,,,,,,
731.858,207.177,0.0063061,,,,,,
732.254,207.328,0.006311,,,,,,
732.66,207.48,0.0063153,,,,,,
733.056,207.632,0.0063197,,,,,,
733.461,207.783,0.0063243,,,,,,
733.861,207.935,0.0063286,,,,,,
734.258,208.087,0.0063326,,,,,,
734.658,208.238,0.0063367,,,,,,
735.055,208.39,0.006341,,,,,,
735.457,208.542,0.006345,,,,,,
735.852,208.693,0.0063495,,,,,,
736.254,208.845,0.0063539,,,,,,
736.652,208.997,0.0063582,,,,,,
737.049,209.148,0.0063625,,,,,,
737.443,209.3,0.0063666,,,,,,
737.847,209.452,0.0063715,,,,,,
738.238,209.603,0.0063755,,,,,,
738.63,209.755,0.0063796,,,,,,
739.03,209.907,0.0063841,,,,,,
739.428,210.058,0.0063881,,,,,,
739.826,210.21,0.0063929,,,,,,
740.217,210.362,0.0063969,,,,,,
740.617,210.513,0.0064014,,,,,,
741.011,210.665,0.006406,,,,,,
741.41,210.817,0.0064102,,,,,,
741.804,210.968,0.0064144,,,,,,
742.203,211.12,0.0064184,,,,,,
742.604,211.272,0.0064237,,,,,,
742.996,211.423,0.0064274,,,,,,
743.392,211.575,0.0064317,,,,,,
743.786,211.727,0.0064358,,,,,,
744.178,211.878,0.0064398,,,,,,
744.567,212.03,0.0064442,,,,,,
744.965,212.182,0.0064483,,,,,,
745.363,212.333,0.0064526,,,,,,
745.758,212.485,0.0064568,,,,,,
746.113,212.637,0.0064609,,,,,,
746.508,212.788,0.0064649,,,,,,
746.91,212.94,0.0064697,,,,,,
747.296,213.092,0.0064735,,,,,,
747.691,213.243,0.0064779,,,,,,
748.082,213.395,0.0064826,,,,,,
748.475,213.547,0.0064859,,,,,,
748.873,213.698,0.0064899,,,,,,
749.265,213.85,0.0064939,,,,,,
749.661,214.002,0.0064981,,,,,,
750.053,214.153,0.0065024,,,,,,
750.445,214.305,0.0065063,,,,,,
750.84,214.457,0.0065103,,,,,,
751.231,214.608,0.0065144,,,,,,
751.626,214.76,0.0065185,,,,,,
752.016,214.912,0.0065227,,,,,,
752.415,215.063,0.0065271,,,,,,
752.802,215.215,0.0065311,,,,,,
753.195,215.367,0.006535,,,,,,
753.59,215.518,0.0065389,,,,,,
753.982,215.67,0.0065425,,,,,,
754.378,215.822,0.0065466,,,,,,
754.772,215.973,0.0065505,,,,,,
755.164,216.125,0.0065547,,,,,,
755.559,216.277,0.0065587,,,,,,
755.953,216.428,0.0065628,,,,,,
756.355,216.58,0.0065667,,,,,,
756.745,216.732,0.006571,,,,,,
757.136,216.883,0.0065749,,,,,,
757.528,217.035,0.006579,,,,,,
757.916,217.187,0.0065829,,,,,,
758.312,217.338,0.0065871,,,,,,
758.714,217.49,0.0065914,,,,,,
759.105,217.642,0.0065951,,,,,,
759.501,217.793,0.0065991,,,,,,
759.892,217.945,0.0066032,,,,,,
760.287,218.097,0.0066072,,,,,,
760.685,218.248,0.0066113,,,,,,
761.075,218.4,0.0066163,,,,,,
761.472,218.552,0.0066202,,,,,,
761.859,218.703,0.006624,,,,,,
762.253,218.855,0.0066283,,,,,,
762.643,219.007,0.0066323,,,,,,
763.038,219.158,0.0066361,,,,,,
763.44,219.31,0.0066395,,,,,,
763.822,219.462,0.0066434,,,,,,
764.217,219.613,0.0066473,,,,,,
764.607,219.765,0.0066514,,,,,,
765.002,219.917,0.0066554,,,,,,
765.393,220.068,0.0066594,,,,,,
765.787,220.22,0.0066635,,,,,,
766.179,220.372,0.0066677,,,,,,
766.574,220.523,0.0066714,,,,,,
766.961,220.675,0.0066755,,,,,,
767.362,220.827,0.0066794,,,,,,
767.754,220.978,0.0066836,,,,,,
768.142,221.13,0.0066876,,,,,,
768.537,221.282,0.0066916,,,,,,
768.932,221.433,0.0066961,,,,,,
769.319,221.585,0.0067003,,,,,,
769.703,221.737,0.0067041,,,,,,
770.089,221.888,0.006708,,,,,,
770.481,222.04,0.006712,,,,,,
770.866,222.192,0.0067161,,,,,,
771.25,222.343,0.0067204,,,,,,
771.627,222.495,0.0067248,,,,,,
772.006,222.647,0.0067287,,,,,,
772.376,222.798,0.0067325,,,,,,
772.766,222.95,0.0067366,,,,,,
773.139,223.102,0.0067405,,,,,,
773.521,223.253,0.0067444,,,,,,
773.9,223.405,0.006748,,,,,,
774.279,223.557,0.0067521,,,,,,
774.664,223.708,0.006756,,,,,,
775.05,223.86,0.0067599,,,,,,
775.427,224.012,0.0067639,,,,,,
775.808,224.163,0.0067679,,,,,,
776.187,224.315,0.0067719,,,,,,
776.57,224.467,0.0067757,,,,,,
776.955,224.618,0.0067797,,,,,,
777.338,224.77,0.0067834,,,,,,
777.732,224.922,0.0067873,,,,,,
777.951,225.008,0.0067894,,,,,,