File: data_backup/8.1mm/ExpDat_sapph8.1mm08192019.csv
#EXPORTTYPE:           ,DATA ALL
#FILE:                 ,sapph8mm08192019.ngb-cle
#FORMAT:               ,NETZSCH5
#FTYPE:                ,ANSI
#IDENTITY:             ,sapphire 8 mm
#DECIMAL:              ,POINT
#SEPARATOR:            ,COMMA
#MTYPE:                ,DIL
#INSTRUMENT:           ,NETZSCH DIL 402C
#PROJECT:              ,feldspar
#DATE/TIME:            ,8/19/2019 9:42:37 AM (UTC-5)
#CORR. FILE:           ,
#TEMPCAL:              ,TCALZERO.TMX
#LABORATORY:           ,Mineral Physics
#OPERATOR:             ,PAG
#REMARK:               ,bare, norm start, for short plageioclase
#SAMPLE:               ,stnd saph 8
#SAMPLE LENGTH /mm:    ,8.092
#MATERIAL:             ,sapphire stnd
#MEASMODE:             ,Standard Expansion
#PURGE GAS 1:          ,ARGON
#FLOW RATE 1 /(ml/min):,75
#M.RANGE /µm:          ,500
#CORR. CODE:           ,010
#RANGE:                ,20.0°C/3.0(K/min)/1100.0°C
#SEGMENT:              ,S1/1
#SEG. 1:               ,20.0°C/3.0(K/min)/1100.0°C

##Temp./°C,Time/min,dL/Lo
  22.72300,  0.00000, 2.3712e-005
  23.72300,  4.94387,-5.2525e-006
  24.72300,  5.43176,-2.1070e-005
  25.72300,  5.78680,-3.3490e-005
  26.72300,  6.08430,-4.2922e-005
  27.72300,  6.34995,-5.1259e-005
  28.72300,  6.59507,-5.7284e-005
  29.72300,  6.82665,-6.2106e-005
  30.72300,  7.04938,-6.4779e-005
  31.72300,  7.26669,-6.6601e-005
  32.72300,  7.47973,-6.7204e-005
  33.72300,  7.69010,-6.5938e-005
  34.72300,  7.89803,-6.4276e-005
  35.72300,  8.10546,-6.0626e-005
  36.72300,  8.31233,-5.6771e-005
  37.72300,  8.51990,-5.1937e-005
  38.72300,  8.72736,-4.5857e-005
  39.72300,  8.93460,-3.9350e-005
  40.72300,  9.14082,-3.2204e-005
  41.72300,  9.34642,-2.4520e-005
  42.72300,  9.55156,-1.6446e-005
  43.72300,  9.75684,-8.5400e-006
  44.72300,  9.96115, 2.4172e-007
  45.72300, 10.16423, 8.8578e-006
  46.72300, 10.36597, 1.8212e-005
  47.72300, 10.56597, 2.7281e-005
  48.72300, 10.76465, 3.6463e-005
  49.72300, 10.96194, 4.5733e-005
  50.72300, 11.15780, 5.5326e-005
  51.72300, 11.35280, 6.4504e-005
  52.72300, 11.54627, 7.4878e-005
  53.72300, 11.73841, 8.4578e-005
  54.72300, 11.92972, 9.5354e-005
  55.72300, 12.12022, 1.0577e-004
  56.72300, 12.31000, 1.1668e-004
  57.72300, 12.49933, 1.2759e-004
  58.72300, 12.68793, 1.3858e-004
  59.72300, 12.87566, 1.4999e-004
  60.72300, 13.06343, 1.6149e-004
  61.72300, 13.25102, 1.7342e-004
  62.72300, 13.43856, 1.8559e-004
  63.72300, 13.62596, 1.9811e-004
  64.72300, 13.81309, 2.1058e-004
  65.72300, 14.00021, 2.2382e-004
  66.72300, 14.18779, 2.3689e-004
  67.72300, 14.37619, 2.5037e-004
  68.72300, 14.56471, 2.6348e-004
  69.72300, 14.75317, 2.7734e-004
  70.72300, 14.94140, 2.9136e-004
  71.72300, 15.12968, 3.0533e-004
  72.72300, 15.31876, 3.1965e-004
  73.72300, 15.50840, 3.3384e-004
  74.72300, 15.69849, 3.4863e-004
  75.72300, 15.88850, 3.6277e-004
  76.72300, 16.07887, 3.7740e-004
  77.72300, 16.26924, 3.9205e-004
  78.72300, 16.45990, 4.0708e-004
  79.72300, 16.65084, 4.2225e-004
  80.72300, 16.84228, 4.3767e-004
  81.72300, 17.03385, 4.5296e-004
  82.72300, 17.22587, 4.6857e-004
  83.72300, 17.41910, 4.8427e-004
  84.72300, 17.61289, 5.0034e-004
  85.72300, 17.80697, 5.1654e-004
  86.72300, 18.00161, 5.3262e-004
  87.72300, 18.19547, 5.4919e-004
  88.72300, 18.39020, 5.6589e-004
  89.72300, 18.58524, 5.8258e-004
  90.72300, 18.78104, 5.9932e-004
  91.72300, 18.97798, 6.1664e-004
  92.72300, 19.17573, 6.3361e-004
  93.72300, 19.37425, 6.5075e-004
  94.72300, 19.57344, 6.6795e-004
  95.72300, 19.77293, 6.8472e-004
  96.72300, 19.97317, 7.0255e-004
  97.72300, 20.17372, 7.1897e-004
  98.72300, 20.37462, 7.3707e-004
  99.72300, 20.57562, 7.5364e-004
 100.723, 20.77691, 7.7041e-004
 101.723, 20.97793, 7.8740e-004
 102.723, 21.17895, 8.0437e-004
 103.723, 21.37995, 8.2059e-004
 104.723, 21.58067, 8.3772e-004
 105.723, 21.78111, 8.5407e-004
 106.723, 21.98066, 8.7084e-004
 107.723, 22.17993, 8.8686e-004
 108.723, 22.37814, 9.0325e-004
 109.723, 22.57545, 9.1959e-004
 110.723, 22.77239, 9.3582e-004
 111.723, 22.96861, 9.5144e-004
 112.723, 23.16500, 9.6791e-004
 113.723, 23.36148, 9.8427e-004
 114.723, 23.55754, 1.0008e-003
 115.723, 23.75342, 1.0167e-003
 116.723, 23.94889, 1.0332e-003
 117.723, 24.14420, 1.0491e-003
 118.723, 24.33949, 1.0660e-003
 119.723, 24.53555, 1.0825e-003
 120.723, 24.73193, 1.0989e-003
 121.723, 24.92828, 1.1157e-003
 122.723, 25.12469, 1.1326e-003
 123.723, 25.32103, 1.1492e-003
 124.723, 25.51777, 1.1665e-003
 125.723, 25.71570, 1.1837e-003
 126.723, 25.91400, 1.2010e-003
 127.723, 26.11309, 1.2175e-003
 128.723, 26.31245, 1.2351e-003
 129.723, 26.51209, 1.2526e-003
 130.723, 26.71234, 1.2700e-003
 131.723, 26.91333, 1.2879e-003
 132.723, 27.11543, 1.3050e-003
 133.723, 27.31786, 1.3229e-003
 134.723, 27.52014, 1.3405e-003
 135.723, 27.72243, 1.3579e-003
 136.723, 27.92499, 1.3757e-003
 137.723, 28.12792, 1.3934e-003
 138.723, 28.33175, 1.4118e-003
 139.723, 28.53626, 1.4299e-003
 140.723, 28.74155, 1.4470e-003
 141.723, 28.94740, 1.4655e-003
 142.723, 29.15334, 1.4828e-003
 143.723, 29.36024, 1.5011e-003
 144.723, 29.56756, 1.5195e-003
 145.723, 29.77478, 1.5372e-003
 146.723, 29.98219, 1.5550e-003
 147.723, 30.18979, 1.5727e-003
 148.723, 30.39808, 1.5913e-003
 149.723, 30.60783, 1.6093e-003
 150.723, 30.81873, 1.6272e-003
 151.723, 31.03015, 1.6452e-003
 152.723, 31.24144, 1.6637e-003
 153.723, 31.45221, 1.6818e-003
 154.723, 31.66304, 1.6995e-003
 155.723, 31.87485, 1.7180e-003
 156.723, 32.08703, 1.7361e-003
 157.723, 32.29979, 1.7541e-003
 158.723, 32.51283, 1.7725e-003
 159.723, 32.72585, 1.7906e-003
 160.723, 32.93968, 1.8090e-003
 161.723, 33.15401, 1.8266e-003
 162.723, 33.36930, 1.8447e-003
 163.723, 33.58493, 1.8630e-003
 164.723, 33.80096, 1.8810e-003
 165.723, 34.01746, 1.8989e-003
 166.723, 34.23421, 1.9173e-003
 167.723, 34.45142, 1.9358e-003
 168.723, 34.66903, 1.9541e-003
 169.723, 34.88648, 1.9725e-003
 170.723, 35.10421, 1.9908e-003
 171.723, 35.32252, 2.0088e-003
 172.723, 35.54178, 2.0269e-003
 173.723, 35.76123, 2.0450e-003
 174.723, 35.98046, 2.0635e-003
 175.723, 36.19964, 2.0817e-003
 176.723, 36.41898, 2.1000e-003
 177.723, 36.63924, 2.1178e-003
 178.723, 36.86010, 2.1364e-003
 179.723, 37.08127, 2.1545e-003
 180.723, 37.30256, 2.1727e-003
 181.723, 37.52359, 2.1912e-003
 182.723, 37.74530, 2.2099e-003
 183.723, 37.96775, 2.2278e-003
 184.723, 38.19075, 2.2455e-003
 185.723, 38.41390, 2.2641e-003
 186.723, 38.63720, 2.2819e-003
 187.723, 38.86079, 2.2998e-003
 188.723, 39.08467, 2.3185e-003
 189.723, 39.30899, 2.3370e-003
 190.723, 39.53336, 2.3547e-003
 191.723, 39.75782, 2.3731e-003
 192.723, 39.98251, 2.3912e-003
 193.723, 40.20765, 2.4098e-003
 194.723, 40.43320, 2.4273e-003
 195.723, 40.65917, 2.4461e-003
 196.723, 40.88524, 2.4636e-003
 197.723, 41.11162, 2.4825e-003
 198.723, 41.33842, 2.5005e-003
 199.723, 41.56564, 2.5188e-003
 200.723, 41.79340, 2.5368e-003
 201.723, 42.02090, 2.5550e-003
 202.723, 42.24865, 2.5732e-003
 203.723, 42.47629, 2.5912e-003
 204.723, 42.70429, 2.6097e-003
 205.723, 42.93308, 2.6275e-003
 206.723, 43.16172, 2.6449e-003
 207.723, 43.39062, 2.6632e-003
 208.723, 43.61863, 2.6816e-003
 209.723, 43.84733, 2.6993e-003
 210.723, 44.07627, 2.7173e-003
 211.723, 44.30577, 2.7352e-003
 212.723, 44.53522, 2.7531e-003
 213.723, 44.76524, 2.7713e-003
 214.723, 44.99594, 2.7893e-003
 215.723, 45.22707, 2.8076e-003
 216.723, 45.45821, 2.8255e-003
 217.723, 45.68940, 2.8436e-003
 218.723, 45.92099, 2.8622e-003
 219.723, 46.15287, 2.8799e-003
 220.723, 46.38542, 2.8983e-003
 221.723, 46.61885, 2.9163e-003
 222.723, 46.85262, 2.9346e-003
 223.723, 47.08621, 2.9529e-003
 224.723, 47.31939, 2.9706e-003
 225.723, 47.55255, 2.9889e-003
 226.723, 47.78619, 3.0065e-003
 227.723, 48.02057, 3.0246e-003
 228.723, 48.25600, 3.0428e-003
 229.723, 48.49151, 3.0610e-003
 230.723, 48.72595, 3.0795e-003
 231.723, 48.96068, 3.0974e-003
 232.723, 49.19573, 3.1146e-003
 233.723, 49.43188, 3.1328e-003
 234.723, 49.66796, 3.1510e-003
 235.723, 49.90429, 3.1694e-003
 236.723, 50.14108, 3.1871e-003
 237.723, 50.37760, 3.2053e-003
 238.723, 50.61438, 3.2232e-003
 239.723, 50.85164, 3.2416e-003
 240.723, 51.08993, 3.2598e-003
 241.723, 51.32877, 3.2779e-003
 242.723, 51.56784, 3.2956e-003
 243.723, 51.80746, 3.3143e-003
 244.723, 52.04723, 3.3322e-003
 245.723, 52.28771, 3.3502e-003
 246.723, 52.52819, 3.3685e-003
 247.723, 52.76847, 3.3867e-003
 248.723, 53.00883, 3.4046e-003
 249.723, 53.24953, 3.4223e-003
 250.723, 53.49082, 3.4409e-003
 251.723, 53.73242, 3.4591e-003
 252.723, 53.97375, 3.4769e-003
 253.723, 54.21553, 3.4952e-003
 254.723, 54.45751, 3.5131e-003
 255.723, 54.70007, 3.5312e-003
 256.723, 54.94311, 3.5490e-003
 257.723, 55.18628, 3.5671e-003
 258.723, 55.42990, 3.5851e-003
 259.723, 55.67338, 3.6031e-003
 260.723, 55.91683, 3.6212e-003
 261.723, 56.16056, 3.6386e-003
 262.723, 56.40503, 3.6563e-003
 263.723, 56.65029, 3.6749e-003
 264.723, 56.89574, 3.6930e-003
 265.723, 57.14158, 3.7111e-003
 266.723, 57.38757, 3.7291e-003
 267.723, 57.63385, 3.7471e-003
 268.723, 57.88026, 3.7650e-003
 269.723, 58.12700, 3.7833e-003
 270.723, 58.37391, 3.8018e-003
 271.723, 58.62060, 3.8199e-003
 272.723, 58.86769, 3.8374e-003
 273.723, 59.11512, 3.8554e-003
 274.723, 59.36371, 3.8740e-003
 275.723, 59.61269, 3.8918e-003
 276.723, 59.86262, 3.9095e-003
 277.723, 60.11261, 3.9272e-003
 278.723, 60.36304, 3.9460e-003
 279.723, 60.61321, 3.9634e-003
 280.723, 60.86349, 3.9820e-003
 281.723, 61.11387, 3.9999e-003
 282.723, 61.36448, 4.0174e-003
 283.723, 61.61557, 4.0354e-003
 284.723, 61.86732, 4.0537e-003
 285.723, 62.11956, 4.0714e-003
 286.723, 62.37243, 4.0896e-003
 287.723, 62.62540, 4.1076e-003
 288.723, 62.87877, 4.1252e-003
 289.723, 63.13262, 4.1438e-003
 290.723, 63.38695, 4.1614e-003
 291.723, 63.64157, 4.1797e-003
 292.723, 63.89606, 4.1978e-003
 293.723, 64.15077, 4.2157e-003
 294.723, 64.40615, 4.2338e-003
 295.723, 64.66152, 4.2515e-003
 296.723, 64.91704, 4.2704e-003
 297.723, 65.17331, 4.2881e-003
 298.723, 65.42992, 4.3061e-003
 299.723, 65.68700, 4.3243e-003
 300.723, 65.94431, 4.3414e-003
 301.723, 66.20216, 4.3595e-003
 302.723, 66.45996, 4.3773e-003
 303.723, 66.71772, 4.3957e-003
 304.723, 66.97614, 4.4138e-003
 305.723, 67.23507, 4.4311e-003
 306.723, 67.49448, 4.4488e-003
 307.723, 67.75402, 4.4677e-003
 308.723, 68.01387, 4.4853e-003
 309.723, 68.27503, 4.5035e-003
 310.723, 68.53590, 4.5216e-003
 311.723, 68.79642, 4.5385e-003
 312.723, 69.05691, 4.5572e-003
 313.723, 69.31805, 4.5747e-003
 314.723, 69.57986, 4.5928e-003
 315.723, 69.84235, 4.6107e-003
 316.723, 70.10512, 4.6286e-003
 317.723, 70.36798, 4.6464e-003
 318.723, 70.63084, 4.6643e-003
 319.723, 70.89439, 4.6822e-003
 320.723, 71.15806, 4.7004e-003
 321.723, 71.42179, 4.7182e-003
 322.723, 71.68530, 4.7360e-003
 323.723, 71.94917, 4.7540e-003
 324.723, 72.21328, 4.7717e-003
 325.723, 72.47808, 4.7900e-003
 326.723, 72.74369, 4.8074e-003
 327.723, 73.00951, 4.8253e-003
 328.723, 73.27576, 4.8436e-003
 329.723, 73.54193, 4.8617e-003
 330.723, 73.80906, 4.8794e-003
 331.723, 74.07676, 4.8969e-003
 332.723, 74.34488, 4.9154e-003
 333.723, 74.61262, 4.9331e-003
 334.723, 74.88020, 4.9507e-003
 335.723, 75.14856, 4.9685e-003
 336.723, 75.41858, 4.9862e-003
 337.723, 75.68862, 5.0039e-003
 338.723, 75.95769, 5.0209e-003
 339.723, 76.22580, 5.0394e-003
 340.723, 76.49565, 5.0573e-003
 341.723, 76.76630, 5.0747e-003
 342.723, 77.03765, 5.0929e-003
 343.723, 77.30870, 5.1112e-003
 344.723, 77.57970, 5.1290e-003
 345.723, 77.85136, 5.1471e-003
 346.723, 78.12401, 5.1652e-003
 347.723, 78.39783, 5.1828e-003
 348.723, 78.67258, 5.2006e-003
 349.723, 78.94842, 5.2189e-003
 350.723, 79.22362, 5.2365e-003
 351.723, 79.49886, 5.2537e-003
 352.723, 79.77423, 5.2723e-003
 353.723, 80.04961, 5.2902e-003
 354.723, 80.32486, 5.3079e-003
 355.723, 80.59980, 5.3248e-003
 356.723, 80.87520, 5.3429e-003
 357.723, 81.15064, 5.3599e-003
 358.723, 81.42684, 5.3779e-003
 359.723, 81.70360, 5.3956e-003
 360.723, 81.98121, 5.4133e-003
 361.723, 82.25897, 5.4313e-003
 362.723, 82.53604, 5.4490e-003
 363.723, 82.81399, 5.4672e-003
 364.723, 83.09236, 5.4847e-003
 365.723, 83.37079, 5.5029e-003
 366.723, 83.64937, 5.5209e-003
 367.723, 83.92936, 5.5381e-003
 368.723, 84.20987, 5.5561e-003
 369.723, 84.49059, 5.5743e-003
 370.723, 84.77089, 5.5914e-003
 371.723, 85.05141, 5.6097e-003
 372.723, 85.33229, 5.6270e-003
 373.723, 85.61434, 5.6451e-003
 374.723, 85.89658, 5.6628e-003
 375.723, 86.17844, 5.6815e-003
 376.723, 86.45987, 5.6990e-003
 377.723, 86.74150, 5.7168e-003
 378.723, 87.02463, 5.7343e-003
 379.723, 87.30951, 5.7524e-003
 380.723, 87.59417, 5.7709e-003
 381.723, 87.87829, 5.7884e-003
 382.723, 88.16171, 5.8062e-003
 383.723, 88.44542, 5.8249e-003
 384.723, 88.73051, 5.8424e-003
 385.723, 89.01645, 5.8617e-003
 386.723, 89.30260, 5.8799e-003
 387.723, 89.58923, 5.8985e-003
 388.723, 89.87760, 5.9168e-003
 389.723, 90.16763, 5.9361e-003
 390.723, 90.45872, 5.9555e-003
 391.723, 90.75080, 5.9740e-003
 392.723, 91.04414, 5.9929e-003
 393.723, 91.33708, 6.0114e-003
 394.723, 91.62911, 6.0296e-003
 395.723, 91.91987, 6.0471e-003
 396.723, 92.20859, 6.0650e-003
 397.723, 92.49437, 6.0815e-003
 398.723, 92.77799, 6.0986e-003
 399.723, 93.05929, 6.1143e-003
 400.723, 93.33919, 6.1320e-003
 401.723, 93.61761, 6.1475e-003
 402.723, 93.89484, 6.1644e-003
 403.723, 94.17130, 6.1808e-003
 404.723, 94.44845, 6.1981e-003
 405.723, 94.72624, 6.2141e-003
 406.723, 95.00482, 6.2320e-003
 407.723, 95.28394, 6.2502e-003
 408.723, 95.56504, 6.2670e-003
 409.723, 95.84786, 6.2854e-003
 410.723, 96.13151, 6.3024e-003
 411.723, 96.41587, 6.3203e-003
 412.723, 96.70070, 6.3379e-003
 413.723, 96.98617, 6.3560e-003
 414.723, 97.27237, 6.3729e-003
 415.723, 97.55990, 6.3912e-003
 416.723, 97.84858, 6.4079e-003
 417.723, 98.13741, 6.4264e-003
 418.723, 98.42686, 6.4434e-003
 419.723, 98.71756, 6.4618e-003
 420.723, 99.00913, 6.4794e-003
 421.723, 99.30195, 6.4975e-003
 422.723, 99.59622, 6.5151e-003
 423.723, 99.89183, 6.5327e-003
 424.723,100.188, 6.5510e-003
 425.723,100.485, 6.5686e-003
 426.723,100.782, 6.5867e-003
 427.723,101.08, 6.6046e-003
 428.723,101.379, 6.6229e-003
 429.723,101.678, 6.6402e-003
 430.723,101.977, 6.6579e-003
 431.723,102.277, 6.6759e-003
 432.723,102.577, 6.6943e-003
 433.723,102.878, 6.7117e-003
 434.723,103.179, 6.7299e-003
 435.723,103.481, 6.7471e-003
 436.723,103.783, 6.7657e-003
 437.723,104.085, 6.7830e-003
 438.723,104.389, 6.8009e-003
 439.723,104.701, 6.8192e-003
 440.723,105.014, 6.8369e-003
 441.723,105.321, 6.8548e-003
 442.723,105.626, 6.8727e-003
 443.723,105.932, 6.8910e-003
 444.723,106.238, 6.9090e-003
 445.723,106.545, 6.9262e-003
 446.723,106.852, 6.9434e-003
 447.723,107.158, 6.9604e-003
 448.723,107.465, 6.9788e-003
 449.723,107.772, 6.9961e-003
 450.723,108.079, 7.0139e-003
 451.723,108.386, 7.0314e-003
 452.723,108.694, 7.0500e-003
 453.723,109.003, 7.0669e-003
 454.723,109.311, 7.0852e-003
 455.723,109.62, 7.1026e-003
 456.723,109.929, 7.1210e-003
 457.723,110.238, 7.1388e-003
 458.723,110.549, 7.1560e-003
 459.723,110.859, 7.1739e-003
 460.723,111.169, 7.1917e-003
 461.723,111.479, 7.2097e-003
 462.723,111.791, 7.2276e-003
 463.723,112.103, 7.2454e-003
 464.723,112.416, 7.2629e-003
 465.723,112.727, 7.2809e-003
 466.723,113.038, 7.2983e-003
 467.723,113.349, 7.3165e-003
 468.723,113.66, 7.3346e-003
 469.723,113.973, 7.3513e-003
 470.723,114.285, 7.3698e-003
 471.723,114.598, 7.3868e-003
 472.723,114.911, 7.4043e-003
 473.723,115.224, 7.4220e-003
 474.723,115.539, 7.4410e-003
 475.723,115.853, 7.4587e-003
 476.723,116.168, 7.4761e-003
 477.723,116.483, 7.4938e-003
 478.723,116.799, 7.5120e-003
 479.723,117.116, 7.5299e-003
 480.723,117.435, 7.5477e-003
 481.723,117.752, 7.5653e-003
 482.723,118.069, 7.5833e-003
 483.723,118.386, 7.6004e-003
 484.723,118.704, 7.6191e-003
 485.723,119.021, 7.6358e-003
 486.723,119.338, 7.6542e-003
 487.723,119.656, 7.6714e-003
 488.723,119.973, 7.6903e-003
 489.723,120.29, 7.7073e-003
 490.723,120.609, 7.7249e-003
 491.723,120.93, 7.7423e-003
 492.723,121.249, 7.7605e-003
 493.723,121.57, 7.7785e-003
 494.723,121.891, 7.7958e-003
 495.723,122.211, 7.8135e-003
 496.723,122.532, 7.8317e-003
 497.723,122.853, 7.8488e-003
 498.723,123.174, 7.8662e-003
 499.723,123.494, 7.8845e-003
 500.723,123.815, 7.9012e-003
 501.723,124.137, 7.9197e-003
 502.723,124.46, 7.9368e-003
 503.723,124.783, 7.9552e-003
 504.723,125.107, 7.9724e-003
 505.723,125.431, 7.9894e-003
 506.723,125.755, 8.0060e-003
 507.723,126.079, 8.0247e-003
 508.723,126.404, 8.0413e-003
 509.723,126.728, 8.0592e-003
 510.723,127.053, 8.0770e-003
 511.723,127.377, 8.0946e-003
 512.723,127.702, 8.1121e-003
 513.723,128.027, 8.1303e-003
 514.723,128.353, 8.1476e-003
 515.723,128.679, 8.1655e-003
 516.723,129.006, 8.1829e-003
 517.723,129.334, 8.2012e-003
 518.723,129.662, 8.2189e-003
 519.723,129.988, 8.2360e-003
 520.723,130.314, 8.2538e-003
 521.723,130.643, 8.2709e-003
 522.723,130.973, 8.2897e-003
 523.723,131.301, 8.3073e-003
 524.723,131.629, 8.3243e-003
 525.723,131.958, 8.3422e-003
 526.723,132.286, 8.3603e-003
 527.723,132.614, 8.3774e-003
 528.723,132.943, 8.3953e-003
 529.723,133.273, 8.4138e-003
 530.723,133.605, 8.4316e-003
 531.723,133.939, 8.4509e-003
 532.723,134.273, 8.4696e-003
 533.723,134.61, 8.4892e-003
 534.723,134.949, 8.5078e-003
 535.723,135.289, 8.5273e-003
 536.723,135.629, 8.5460e-003
 537.723,135.97, 8.5648e-003
 538.723,136.309, 8.5822e-003
 539.723,136.646, 8.5986e-003
 540.723,136.979, 8.6164e-003
 541.723,137.307, 8.6328e-003
 542.723,137.632, 8.6496e-003
 543.723,137.954, 8.6656e-003
 544.723,138.273, 8.6834e-003
 545.723,138.592, 8.7003e-003
 546.723,138.912, 8.7175e-003
 547.723,139.232, 8.7341e-003
 548.723,139.554, 8.7508e-003
 549.723,139.877, 8.7692e-003
 550.723,140.202, 8.7864e-003
 551.723,140.528, 8.8052e-003
 552.723,140.855, 8.8219e-003
 553.723,141.183, 8.8397e-003
 554.723,141.511, 8.8575e-003
 555.723,141.841, 8.8755e-003
 556.723,142.172, 8.8922e-003
 557.723,142.504, 8.9103e-003
 558.723,142.836, 8.9274e-003
 559.723,143.17, 8.9457e-003
 560.723,143.505, 8.9630e-003
 561.723,143.841, 8.9812e-003
 562.723,144.177, 8.9988e-003
 563.723,144.514, 9.0171e-003
 564.723,144.852, 9.0343e-003
 565.723,145.191, 9.0517e-003
 566.723,145.53, 9.0702e-003
 567.723,145.87, 9.0883e-003
 568.723,146.211, 9.1054e-003
 569.723,146.552, 9.1229e-003
 570.723,146.892, 9.1408e-003
 571.723,147.233, 9.1582e-003
 572.723,147.576, 9.1759e-003
 573.723,147.919, 9.1945e-003
 574.723,148.261, 9.2116e-003
 575.723,148.604, 9.2296e-003
 576.723,148.948, 9.2472e-003
 577.723,149.292, 9.2650e-003
 578.723,149.636, 9.2833e-003
 579.723,149.982, 9.3003e-003
 580.723,150.328, 9.3178e-003
 581.723,150.674, 9.3361e-003
 582.723,151.02, 9.3539e-003
 583.723,151.365, 9.3714e-003
 584.723,151.709, 9.3894e-003
 585.723,152.055, 9.4082e-003
 586.723,152.402, 9.4261e-003
 587.723,152.751, 9.4454e-003
 588.723,153.102, 9.4635e-003
 589.723,153.454, 9.4830e-003
 590.723,153.808, 9.5026e-003
 591.723,154.165, 9.5210e-003
 592.723,154.525, 9.5410e-003
 593.723,154.885, 9.5594e-003
 594.723,155.243, 9.5786e-003
 595.723,155.597, 9.5960e-003
 596.723,155.948, 9.6129e-003
 597.723,156.295, 9.6307e-003
 598.723,156.64, 9.6467e-003
 599.723,156.982, 9.6631e-003
 600.723,157.321, 9.6806e-003
 601.723,157.659, 9.6969e-003
 602.723,157.995, 9.7144e-003
 603.723,158.33, 9.7321e-003
 604.723,158.666, 9.7484e-003
 605.723,159.004, 9.7668e-003
 606.723,159.342, 9.7843e-003
 607.723,159.683, 9.8017e-003
 608.723,160.027, 9.8187e-003
 609.723,160.371, 9.8369e-003
 610.723,160.713, 9.8544e-003
 611.723,161.057, 9.8729e-003
 612.723,161.404, 9.8900e-003
 613.723,161.752, 9.9087e-003
 614.723,162.099, 9.9265e-003
 615.723,162.448, 9.9427e-003
 616.723,162.798, 9.9606e-003
 617.723,163.149, 9.9781e-003
 618.723,163.501, 9.9966e-003
 619.723,163.851, 1.0014e-002
 620.723,164.202, 1.0032e-002
 621.723,164.555, 1.0050e-002
 622.723,164.908, 1.0067e-002
 623.723,165.262, 1.0086e-002
 624.723,165.618, 1.0103e-002
 625.723,165.975, 1.0121e-002
 626.723,166.333, 1.0139e-002
 627.723,166.689, 1.0156e-002
 628.723,167.045, 1.0175e-002
 629.723,167.401, 1.0192e-002
 630.723,167.758, 1.0210e-002
 631.723,168.115, 1.0227e-002
 632.723,168.473, 1.0245e-002
 633.723,168.832, 1.0264e-002
 634.723,169.19, 1.0281e-002
 635.723,169.548, 1.0298e-002
 636.723,169.906, 1.0317e-002
 637.723,170.266, 1.0335e-002
 638.723,170.625, 1.0353e-002
 639.723,170.986, 1.0371e-002
 640.723,171.346, 1.0388e-002
 641.723,171.707, 1.0407e-002
 642.723,172.068, 1.0424e-002
 643.723,172.429, 1.0442e-002
 644.723,172.789, 1.0460e-002
 645.723,173.15, 1.0478e-002
 646.723,173.512, 1.0496e-002
 647.723,173.873, 1.0513e-002
 648.723,174.233, 1.0532e-002
 649.723,174.595, 1.0549e-002
 650.723,174.957, 1.0567e-002
 651.723,175.32, 1.0585e-002
 652.723,175.682, 1.0602e-002
 653.723,176.045, 1.0621e-002
 654.723,176.406, 1.0639e-002
 655.723,176.768, 1.0657e-002
 656.723,177.132, 1.0675e-002
 657.723,177.497, 1.0692e-002
 658.723,177.86, 1.0711e-002
 659.723,178.225, 1.0728e-002
 660.723,178.59, 1.0746e-002
 661.723,178.954, 1.0765e-002
 662.723,179.317, 1.0782e-002
 663.723,179.683, 1.0799e-002
 664.723,180.049, 1.0818e-002
 665.723,180.414, 1.0835e-002
 666.723,180.781, 1.0853e-002
 667.723,181.147, 1.0872e-002
 668.723,181.511, 1.0889e-002
 669.723,181.876, 1.0908e-002
 670.723,182.242, 1.0925e-002
 671.723,182.608, 1.0942e-002
 672.723,182.974, 1.0961e-002
 673.723,183.341, 1.0979e-002
 674.723,183.71, 1.0997e-002
 675.723,184.08, 1.1015e-002
 676.723,184.451, 1.1034e-002
 677.723,184.824, 1.1053e-002
 678.723,185.199, 1.1072e-002
 679.723,185.578, 1.1092e-002
 680.723,185.958, 1.1111e-002
 681.723,186.339, 1.1130e-002
 682.723,186.72, 1.1148e-002
 683.723,187.099, 1.1167e-002
 684.723,187.476, 1.1184e-002
 685.723,187.848, 1.1202e-002
 686.723,188.215, 1.1219e-002
 687.723,188.58, 1.1236e-002
 688.723,188.944, 1.1253e-002
 689.723,189.307, 1.1271e-002
 690.723,189.667, 1.1288e-002
 691.723,190.028, 1.1305e-002
 692.723,190.394, 1.1323e-002
 693.723,190.761, 1.1341e-002
 694.723,191.13, 1.1360e-002
 695.723,191.5, 1.1378e-002
 696.723,191.873, 1.1396e-002
 697.723,192.247, 1.1413e-002
 698.723,192.62, 1.1431e-002
 699.723,192.994, 1.1450e-002
 700.723,193.37, 1.1467e-002
 701.723,193.745, 1.1485e-002
 702.723,194.121, 1.1503e-002
 703.723,194.499, 1.1522e-002
 704.723,194.877, 1.1539e-002
 705.723,195.256, 1.1557e-002
 706.723,195.635, 1.1575e-002
 707.723,196.015, 1.1593e-002
 708.723,196.395, 1.1611e-002
 709.723,196.776, 1.1629e-002
 710.723,197.158, 1.1647e-002
 711.723,197.538, 1.1665e-002
 712.723,197.918, 1.1682e-002
 713.723,198.301, 1.1700e-002
 714.723,198.684, 1.1718e-002
 715.723,199.064, 1.1735e-002
 716.723,199.444, 1.1754e-002
 717.723,199.824, 1.1772e-002
 718.723,200.205, 1.1790e-002
 719.723,200.586, 1.1806e-002
 720.723,200.968, 1.1826e-002
 721.723,201.351, 1.1843e-002
 722.723,201.732, 1.1861e-002
 723.723,202.115, 1.1879e-002
 724.723,202.501, 1.1898e-002
 725.723,202.885, 1.1915e-002
 726.723,203.268, 1.1934e-002
 727.723,203.652, 1.1951e-002
 728.723,204.034, 1.1970e-002
 729.723,204.415, 1.1987e-002
 730.723,204.797, 1.2005e-002
 731.723,205.18, 1.2023e-002
 732.723,205.563, 1.2041e-002
 733.723,205.946, 1.2059e-002
 734.723,206.328, 1.2077e-002
 735.723,206.711, 1.2095e-002
 736.723,207.095, 1.2112e-002
 737.723,207.48, 1.2131e-002
 738.723,207.864, 1.2149e-002
 739.723,208.249, 1.2167e-002
 740.723,208.635, 1.2186e-002
 741.723,209.018, 1.2203e-002
 742.723,209.403, 1.2221e-002
 743.723,209.788, 1.2239e-002
 744.723,210.172, 1.2258e-002
 745.723,210.556, 1.2276e-002
 746.723,210.939, 1.2294e-002
 747.723,211.322, 1.2312e-002
 748.723,211.707, 1.2330e-002
 749.723,212.097, 1.2349e-002
 750.723,212.489, 1.2369e-002
 751.723,212.882, 1.2387e-002
 752.723,213.277, 1.2406e-002
 753.723,213.676, 1.2425e-002
 754.723,214.078, 1.2444e-002
 755.723,214.476, 1.2463e-002
 756.723,214.868, 1.2480e-002
 757.723,215.255, 1.2497e-002
 758.723,215.637, 1.2515e-002
 759.723,216.016, 1.2532e-002
 760.723,216.392, 1.2550e-002
 761.723,216.765, 1.2568e-002
 762.723,217.14, 1.2586e-002
 763.723,217.516, 1.2603e-002
 764.723,217.892, 1.2622e-002
 765.723,218.269, 1.2639e-002
 766.723,218.647, 1.2657e-002
 767.723,219.024, 1.2675e-002
 768.723,219.403, 1.2692e-002
 769.723,219.785, 1.2711e-002
 770.723,220.167, 1.2728e-002
 771.723,220.55, 1.2747e-002
 772.723,220.934, 1.2764e-002
 773.723,221.317, 1.2782e-002
 774.723,221.701, 1.2800e-002
 775.723,222.086, 1.2818e-002
 776.723,222.473, 1.2836e-002
 777.723,222.86, 1.2854e-002
 778.723,223.248, 1.2873e-002
 779.723,223.636, 1.2890e-002
 780.723,224.027, 1.2909e-002
 781.723,224.418, 1.2927e-002
 782.723,224.813, 1.2946e-002
 783.723,225.217, 1.2965e-002
 784.723,225.628, 1.2984e-002
 785.723,226.041, 1.3002e-002
 786.723,226.455, 1.3020e-002
 787.723,226.869, 1.3038e-002
 788.723,227.284, 1.3057e-002
 789.723,227.706, 1.3077e-002
 790.723,228.144, 1.3097e-002
 791.723,228.591, 1.3116e-002
 792.723,229.026, 1.3134e-002
 793.723,229.447, 1.3152e-002
 794.723,229.861, 1.3169e-002
 795.723,230.273, 1.3188e-002
 796.723,230.689, 1.3207e-002
 797.723,231.117, 1.3225e-002
 798.723,231.558, 1.3246e-002
 799.723,232.009, 1.3264e-002
 800.723,232.462, 1.3283e-002
 801.723,232.907, 1.3301e-002
 802.723,233.343, 1.3320e-002
 803.723,233.776, 1.3337e-002
 804.723,234.207, 1.3356e-002
 805.723,234.634, 1.3374e-002
 806.723,235.054, 1.3391e-002
 807.723,235.468, 1.3410e-002
 808.723,235.879, 1.3427e-002
 809.723,236.283, 1.3443e-002
 810.723,236.686, 1.3463e-002
 811.723,237.092, 1.3481e-002
 812.723,237.502, 1.3501e-002
 813.723,237.916, 1.3519e-002
 814.723,238.333, 1.3540e-002
 815.723,238.752, 1.3557e-002
 816.723,239.17, 1.3576e-002
 817.723,239.582, 1.3594e-002
 818.723,239.985, 1.3611e-002
 819.723,240.38, 1.3627e-002
 820.723,240.772, 1.3645e-002
 821.723,241.161, 1.3662e-002
 822.723,241.548, 1.3680e-002
 823.723,241.934, 1.3697e-002
 824.723,242.319, 1.3713e-002
 825.723,242.702, 1.3732e-002
 826.723,243.083, 1.3749e-002
 827.723,243.464, 1.3767e-002
 828.723,243.847, 1.3784e-002
 829.723,244.232, 1.3803e-002
 830.723,244.615, 1.3820e-002
 831.723,244.997, 1.3837e-002
 832.723,245.377, 1.3855e-002
 833.723,245.757, 1.3872e-002
 834.723,246.137, 1.3889e-002
 835.723,246.519, 1.3908e-002
 836.723,246.901, 1.3926e-002
 837.723,247.283, 1.3943e-002
 838.723,247.668, 1.3961e-002
 839.723,248.053, 1.3979e-002
 840.723,248.437, 1.3997e-002
 841.723,248.82, 1.4015e-002
 842.723,249.204, 1.4033e-002
 843.723,249.586, 1.4050e-002
 844.723,249.968, 1.4068e-002
 845.723,250.351, 1.4086e-002
 846.723,250.733, 1.4103e-002
 847.723,251.116, 1.4122e-002
 848.723,251.5, 1.4140e-002
 849.723,251.884, 1.4157e-002
 850.723,252.267, 1.4176e-002
 851.723,252.651, 1.4193e-002
 852.723,253.037, 1.4211e-002
 853.723,253.423, 1.4230e-002
 854.723,253.808, 1.4248e-002
 855.723,254.19, 1.4265e-002
 856.723,254.568, 1.4283e-002
 857.723,254.94, 1.4300e-002
 858.723,255.313, 1.4317e-002
 859.723,255.693, 1.4337e-002
 860.723,256.082, 1.4355e-002
 861.723,256.477, 1.4374e-002
 862.723,256.874, 1.4393e-002
 863.723,257.267, 1.4411e-002
 864.723,257.656, 1.4429e-002
 865.723,258.043, 1.4447e-002
 866.723,258.432, 1.4465e-002
 867.723,258.822, 1.4484e-002
 868.723,259.217, 1.4502e-002
 869.723,259.619, 1.4522e-002
 870.723,260.032, 1.4542e-002
 871.723,260.46, 1.4562e-002
 872.723,260.898, 1.4584e-002
 873.723,261.337, 1.4603e-002
 874.723,261.773, 1.4622e-002
 875.723,262.197, 1.4641e-002
 876.723,262.607, 1.4658e-002
 877.723,263.008, 1.4675e-002
 878.723,263.405, 1.4692e-002
 879.723,263.797, 1.4710e-002
 880.723,264.183, 1.4727e-002
 881.723,264.566, 1.4744e-002
 882.723,264.95, 1.4764e-002
 883.723,265.337, 1.4781e-002
 884.723,265.726, 1.4799e-002
 885.723,266.116, 1.4818e-002
 886.723,266.503, 1.4835e-002
 887.723,266.886, 1.4853e-002
 888.723,267.272, 1.4872e-002
 889.723,267.663, 1.4890e-002
 890.723,268.056, 1.4908e-002
 891.723,268.451, 1.4925e-002
 892.723,268.844, 1.4943e-002
 893.723,269.235, 1.4962e-002
 894.723,269.628, 1.4980e-002
 895.723,270.022, 1.4998e-002
 896.723,270.42, 1.5016e-002
 897.723,270.82, 1.5035e-002
 898.723,271.221, 1.5052e-002
 899.723,271.619, 1.5070e-002
 900.723,272.018, 1.5090e-002
 901.723,272.423, 1.5107e-002
 902.723,272.831, 1.5125e-002
 903.723,273.24, 1.5145e-002
 904.723,273.654, 1.5163e-002
 905.723,274.072, 1.5182e-002
 906.723,274.489, 1.5200e-002
 907.723,274.909, 1.5218e-002
 908.723,275.338, 1.5238e-002
 909.723,275.777, 1.5256e-002
 910.723,276.228, 1.5277e-002
 911.723,276.695, 1.5297e-002
 912.723,277.199, 1.5319e-002
 913.723,277.762, 1.5341e-002
 914.723,278.372, 1.5362e-002
 915.723,278.954, 1.5384e-002
 916.723,279.438, 1.5398e-002
 917.723,279.87, 1.5414e-002
 918.723,280.268, 1.5430e-002
 919.723,280.635, 1.5444e-002
 920.723,280.992, 1.5463e-002
 921.723,281.356, 1.5482e-002
 922.723,281.741, 1.5503e-002
 923.723,282.152, 1.5524e-002
 924.723,282.59, 1.5544e-002
 925.723,283.034, 1.5565e-002
 926.723,283.463, 1.5581e-002
 927.723,283.873, 1.5598e-002
 928.723,284.271, 1.5614e-002
 929.723,284.654, 1.5630e-002
 930.723,285.03, 1.5648e-002
 931.723,285.406, 1.5665e-002
 932.723,285.789, 1.5683e-002
 933.723,286.178, 1.5702e-002
 934.723,286.568, 1.5719e-002
 935.723,286.955, 1.5738e-002
 936.723,287.336, 1.5754e-002
 937.723,287.709, 1.5770e-002
 938.723,288.079, 1.5789e-002
 939.723,288.457, 1.5806e-002
 940.723,288.844, 1.5825e-002
 941.723,289.233, 1.5843e-002
 942.723,289.617, 1.5860e-002
 943.723,289.996, 1.5880e-002
 944.723,290.374, 1.5897e-002
 945.723,290.751, 1.5914e-002
 946.723,291.126, 1.5931e-002
 947.723,291.504, 1.5949e-002
 948.723,291.888, 1.5966e-002
 949.723,292.277, 1.5986e-002
 950.723,292.667, 1.6003e-002
 951.723,293.054, 1.6020e-002
 952.723,293.434, 1.6039e-002
 953.723,293.814, 1.6056e-002
 954.723,294.193, 1.6073e-002
 955.723,294.566, 1.6092e-002
 956.723,294.931, 1.6108e-002
 957.723,295.292, 1.6125e-002
 958.723,295.656, 1.6143e-002
 959.723,296.031, 1.6163e-002
 960.723,296.418, 1.6181e-002
 961.723,296.814, 1.6200e-002
 962.723,297.207, 1.6219e-002
 963.723,297.589, 1.6235e-002
 964.723,297.968, 1.6253e-002
 965.723,298.348, 1.6271e-002
 966.723,298.724, 1.6289e-002
 967.723,299.101, 1.6306e-002
 968.723,299.48, 1.6327e-002
 969.723,299.864, 1.6345e-002
 970.723,300.247, 1.6363e-002
 971.723,300.625, 1.6382e-002
 972.723,300.999, 1.6401e-002
 973.723,301.373, 1.6419e-002
 974.723,301.746, 1.6438e-002
 975.723,302.118, 1.6457e-002
 976.723,302.484, 1.6474e-002
 977.723,302.846, 1.6493e-002
 978.723,303.205, 1.6510e-002
 979.723,303.564, 1.6528e-002
 980.723,303.923, 1.6547e-002
 981.723,304.277, 1.6564e-002
 982.723,304.626, 1.6581e-002
 983.723,304.973, 1.6600e-002
 984.723,305.323, 1.6618e-002
 985.723,305.675, 1.6635e-002
 986.723,306.028, 1.6653e-002
 987.723,306.38, 1.6671e-002
 988.723,306.734, 1.6689e-002
 989.723,307.093, 1.6709e-002
 990.723,307.456, 1.6727e-002
 991.723,307.824, 1.6745e-002
 992.723,308.199, 1.6764e-002
 993.723,308.577, 1.6784e-002
 994.723,308.953, 1.6802e-002
 995.723,309.329, 1.6820e-002
 996.723,309.702, 1.6838e-002
 997.723,310.076, 1.6856e-002
 998.723,310.452, 1.6875e-002
 999.723,310.831, 1.6893e-002
1000.72,311.213, 1.6912e-002
1001.72,311.597, 1.6931e-002
1002.72,311.981, 1.6949e-002
1003.72,312.362, 1.6966e-002
1004.72,312.744, 1.6986e-002
1005.72,313.131, 1.7005e-002
1006.72,313.52, 1.7023e-002
1007.72,313.903, 1.7041e-002
1008.72,314.279, 1.7059e-002
1009.72,314.652, 1.7077e-002
1010.72,315.025, 1.7095e-002
1011.72,315.399, 1.7114e-002
1012.72,315.772, 1.7132e-002
1013.72,316.138, 1.7149e-002
1014.72,316.499, 1.7167e-002
1015.72,316.86, 1.7185e-002
1016.72,317.229, 1.7203e-002
1017.72,317.607, 1.7223e-002
1018.72,317.99, 1.7241e-002
1019.72,318.367, 1.7260e-002
1020.72,318.739, 1.7277e-002
1021.72,319.112, 1.7295e-002
1022.72,319.481, 1.7314e-002
1023.72,319.85, 1.7334e-002
1024.72,320.227, 1.7352e-002
1025.72,320.609, 1.7371e-002
1026.72,320.982, 1.7390e-002
1027.72,321.343, 1.7406e-002
1028.72,321.697, 1.7423e-002
1029.72,322.056, 1.7443e-002
1030.72,322.428, 1.7462e-002
1031.72,322.813, 1.7482e-002
1032.72,323.205, 1.7500e-002
1033.72,323.593, 1.7519e-002
1034.72,323.971, 1.7536e-002
1035.72,324.343, 1.7552e-002
1036.72,324.715, 1.7572e-002
1037.72,325.089, 1.7590e-002
1038.72,325.468, 1.7609e-002
1039.72,325.854, 1.7629e-002
1040.72,326.252, 1.7647e-002
1041.72,326.672, 1.7668e-002
1042.72,327.1, 1.7686e-002
1043.72,327.495, 1.7704e-002
1044.72,327.829, 1.7715e-002
1045.72,328.134, 1.7729e-002
1046.72,328.438, 1.7747e-002
1047.72,328.759, 1.7767e-002
1048.72,329.103, 1.7788e-002
1049.72,329.471, 1.7809e-002
1050.72,329.86, 1.7829e-002
1051.72,330.266, 1.7849e-002
1052.72,330.67, 1.7866e-002
1053.72,331.065, 1.7886e-002
1054.72,331.451, 1.7904e-002
1055.72,331.826, 1.7921e-002
1056.72,332.197, 1.7939e-002
1057.72,332.575, 1.7959e-002
1058.72,332.955, 1.7978e-002
1059.72,333.33, 1.7996e-002
1060.72,333.699, 1.8013e-002
1061.72,334.063, 1.8032e-002
1062.72,334.428, 1.8050e-002
1063.72,334.798, 1.8070e-002
1064.72,335.169, 1.8089e-002
1065.72,335.538, 1.8107e-002
1066.72,335.906, 1.8126e-002
1067.72,336.272, 1.8145e-002
1068.72,336.637, 1.8164e-002
1069.72,336.992, 1.8181e-002
1070.72,337.337, 1.8199e-002
1071.72,337.69, 1.8218e-002
1072.72,338.061, 1.8239e-002
1073.72,338.458, 1.8260e-002
1074.72,338.873, 1.8278e-002
1075.72,339.272, 1.8295e-002
1076.72,339.641, 1.8311e-002
1077.72,339.997, 1.8328e-002
1078.72,340.357, 1.8347e-002
1079.72,340.729, 1.8366e-002
1080.72,341.113, 1.8386e-002
1081.72,341.492, 1.8403e-002
1082.72,341.851, 1.8418e-002
1083.72,342.203, 1.8435e-002
1084.72,342.568, 1.8455e-002
1085.72,342.942, 1.8473e-002
1086.72,343.319, 1.8491e-002
1087.72,343.694, 1.8507e-002
1088.72,344.068, 1.8525e-002
1089.72,344.437, 1.8543e-002
1090.72,344.791, 1.8558e-002
1091.72,345.142, 1.8577e-002
1092.72,345.508, 1.8596e-002
1093.72,345.884, 1.8616e-002
1094.72,346.258, 1.8632e-002
1095.72,346.615, 1.8648e-002
1096.72,346.965, 1.8667e-002
1097.72,347.329, 1.8686e-002
1098.72,347.711, 1.8706e-002
1099.72,348.107, 1.8725e-002
1100.72,348.518, 1.8745e-002
1101.72,348.934, 1.8763e-002
1102.72,349.317, 1.8779e-002
1103.72,349.657, 1.8792e-002
1104.72,349.968, 1.8807e-002
1105.72,350.274, 1.8826e-002
1106.72,350.588, 1.8844e-002
1107.72,350.915, 1.8864e-002
1108.22,351.09, 1.8874e-002