File: data_backup/8.1mm/fmt010sCr18.8mm.csv
#EXPORTTYPE:           ,DATA ALL
#FILE:                 ,fmtl010Crun1.ngb-sle
#FORMAT:               ,NETZSCH5
#FTYPE:                ,ANSI
#IDENTITY:             ,fmt short
#DECIMAL:              ,POINT
#SEPARATOR:            ,COMMA
#MTYPE:                ,DIL
#INSTRUMENT:           ,NETZSCH DIL 402C
#PROJECT:              ,feldspar
#DATE/TIME:            ,8/21/2019 9:53:35 AM (UTC-5)
#CORR. FILE:           ,
#TEMPCAL:              ,TCALZERO.TMX
#LABORATORY:           ,Mineral Physics
#OPERATOR:             ,PAG
#REMARK:               ,bare, norm start, for short plageioclase, fmt short probably 010
#SAMPLE:               ,fmt 3rd orientation
#SAMPLE LENGTH /mm:    ,8.776
#MATERIAL:             ,sapphire stnd
#MEASMODE:             ,Standard Expansion
#PURGE GAS 1:          ,ARGON
#FLOW RATE 1 /(ml/min):,75
#M.RANGE /µm:          ,500
#CORR. CODE:           ,010
#RANGE:                ,20.0°C/3.0(K/min)/1010.0°C
#SEGMENT:              ,S1/1
#SEG. 1:               ,20.0°C/3.0(K/min)/1010.0°C

##Temp./°C,Time/min,dL/Lo
  22.55400,  0.00000, 2.2540e-005
  23.55400,  4.87844,-1.0073e-005
  24.55400,  5.37597,-2.6883e-005
  25.55400,  5.73550,-3.9907e-005
  26.55400,  6.03567,-5.0770e-005
  27.55400,  6.30227,-5.9795e-005
  28.55400,  6.54825,-6.6485e-005
  29.55400,  6.77958,-7.2492e-005
  30.55400,  7.00237,-7.6570e-005
  31.55400,  7.21955,-7.9426e-005
  32.55400,  7.43246,-8.1333e-005
  33.55400,  7.64201,-8.1602e-005
  34.55400,  7.84897,-8.0933e-005
  35.55400,  8.05495,-7.9813e-005
  36.55400,  8.26129,-7.6894e-005
  37.55400,  8.46723,-7.3682e-005
  38.55400,  8.67313,-6.8935e-005
  39.55400,  8.87892,-6.4413e-005
  40.55400,  9.08473,-5.8458e-005
  41.55400,  9.29026,-5.2799e-005
  42.55400,  9.49546,-4.6321e-005
  43.55400,  9.69993,-3.9634e-005
  44.55400,  9.90369,-3.2667e-005
  45.55400, 10.10675,-2.5500e-005
  46.55400, 10.30908,-1.8352e-005
  47.55400, 10.50970,-1.0755e-005
  48.55400, 10.70885,-2.9476e-006
  49.55400, 10.90581, 4.6976e-006
  50.55400, 11.10079, 1.3292e-005
  51.55400, 11.29393, 2.1107e-005
  52.55400, 11.48607, 2.9728e-005
  53.55400, 11.67741, 3.7791e-005
  54.55400, 11.86863, 4.6583e-005
  55.55400, 12.05928, 5.5498e-005
  56.55400, 12.24900, 6.4568e-005
  57.55400, 12.43817, 7.3859e-005
  58.55400, 12.62678, 8.4151e-005
  59.55400, 12.81481, 9.3550e-005
  60.55400, 13.00271, 1.0344e-004
  61.55400, 13.19024, 1.1316e-004
  62.55400, 13.37831, 1.2418e-004
  63.55400, 13.56639, 1.3477e-004
  64.55400, 13.75466, 1.4575e-004
  65.55400, 13.94273, 1.5617e-004
  66.55400, 14.12995, 1.6742e-004
  67.55400, 14.31685, 1.7926e-004
  68.55400, 14.50389, 1.9082e-004
  69.55400, 14.69132, 2.0305e-004
  70.55400, 14.87946, 2.1488e-004
  71.55400, 15.06882, 2.2678e-004
  72.55400, 15.25856, 2.3902e-004
  73.55400, 15.44828, 2.5138e-004
  74.55400, 15.63821, 2.6402e-004
  75.55400, 15.82767, 2.7636e-004
  76.55400, 16.01746, 2.8941e-004
  77.55400, 16.20767, 3.0200e-004
  78.55400, 16.39825, 3.1478e-004
  79.55400, 16.58927, 3.2779e-004
  80.55400, 16.78048, 3.4097e-004
  81.55400, 16.97200, 3.5409e-004
  82.55400, 17.16402, 3.6719e-004
  83.55400, 17.35640, 3.8074e-004
  84.55400, 17.54913, 3.9379e-004
  85.55400, 17.74243, 4.0733e-004
  86.55400, 17.93604, 4.2063e-004
  87.55400, 18.13013, 4.3383e-004
  88.55400, 18.32478, 4.4825e-004
  89.55400, 18.52018, 4.6179e-004
  90.55400, 18.71565, 4.7602e-004
  91.55400, 18.91153, 4.8943e-004
  92.55400, 19.10705, 5.0327e-004
  93.55400, 19.30262, 5.1730e-004
  94.55400, 19.49889, 5.3123e-004
  95.55400, 19.69562, 5.4521e-004
  96.55400, 19.89296, 5.5968e-004
  97.55400, 20.09106, 5.7362e-004
  98.55400, 20.28899, 5.8821e-004
  99.55400, 20.48755, 6.0255e-004
 100.554, 20.68632, 6.1624e-004
 101.554, 20.88568, 6.3084e-004
 102.554, 21.08591, 6.4527e-004
 103.554, 21.28682, 6.5917e-004
 104.554, 21.48798, 6.7368e-004
 105.554, 21.68940, 6.8828e-004
 106.554, 21.89082, 7.0259e-004
 107.554, 22.09214, 7.1697e-004
 108.554, 22.29386, 7.3143e-004
 109.554, 22.49576, 7.4592e-004
 110.554, 22.69769, 7.6043e-004
 111.554, 22.89975, 7.7466e-004
 112.554, 23.10179, 7.8930e-004
 113.554, 23.30409, 8.0345e-004
 114.554, 23.50677, 8.1827e-004
 115.554, 23.70989, 8.3259e-004
 116.554, 23.91385, 8.4758e-004
 117.554, 24.11846, 8.6183e-004
 118.554, 24.32342, 8.7635e-004
 119.554, 24.52885, 8.9140e-004
 120.554, 24.73449, 9.0622e-004
 121.554, 24.94018, 9.2092e-004
 122.554, 25.14611, 9.3556e-004
 123.554, 25.35216, 9.5052e-004
 124.554, 25.55860, 9.6521e-004
 125.554, 25.76515, 9.7984e-004
 126.554, 25.97165, 9.9484e-004
 127.554, 26.17846, 1.0097e-003
 128.554, 26.38598, 1.0246e-003
 129.554, 26.59450, 1.0394e-003
 130.554, 26.80407, 1.0542e-003
 131.554, 27.01356, 1.0686e-003
 132.554, 27.22223, 1.0837e-003
 133.554, 27.43072, 1.0987e-003
 134.554, 27.63938, 1.1139e-003
 135.554, 27.84837, 1.1286e-003
 136.554, 28.05769, 1.1435e-003
 137.554, 28.26747, 1.1585e-003
 138.554, 28.47749, 1.1733e-003
 139.554, 28.68792, 1.1882e-003
 140.554, 28.89874, 1.2031e-003
 141.554, 29.10926, 1.2182e-003
 142.554, 29.31988, 1.2331e-003
 143.554, 29.53106, 1.2483e-003
 144.554, 29.74206, 1.2634e-003
 145.554, 29.95403, 1.2780e-003
 146.554, 30.16633, 1.2936e-003
 147.554, 30.37871, 1.3081e-003
 148.554, 30.59167, 1.3234e-003
 149.554, 30.80454, 1.3383e-003
 150.554, 31.01752, 1.3534e-003
 151.554, 31.23039, 1.3684e-003
 152.554, 31.44366, 1.3840e-003
 153.554, 31.65695, 1.3988e-003
 154.554, 31.87114, 1.4140e-003
 155.554, 32.08573, 1.4291e-003
 156.554, 32.30071, 1.4441e-003
 157.554, 32.51599, 1.4594e-003
 158.554, 32.73122, 1.4746e-003
 159.554, 32.94676, 1.4901e-003
 160.554, 33.16276, 1.5053e-003
 161.554, 33.37948, 1.5204e-003
 162.554, 33.59620, 1.5353e-003
 163.554, 33.81275, 1.5509e-003
 164.554, 34.02889, 1.5658e-003
 165.554, 34.24514, 1.5811e-003
 166.554, 34.46226, 1.5966e-003
 167.554, 34.67978, 1.6116e-003
 168.554, 34.89865, 1.6270e-003
 169.554, 35.11801, 1.6424e-003
 170.554, 35.33737, 1.6579e-003
 171.554, 35.55656, 1.6729e-003
 172.554, 35.77478, 1.6885e-003
 173.554, 35.99332, 1.7036e-003
 174.554, 36.21185, 1.7192e-003
 175.554, 36.43123, 1.7347e-003
 176.554, 36.65132, 1.7501e-003
 177.554, 36.87202, 1.7654e-003
 178.554, 37.09321, 1.7805e-003
 179.554, 37.31456, 1.7957e-003
 180.554, 37.53586, 1.8114e-003
 181.554, 37.75707, 1.8267e-003
 182.554, 37.97834, 1.8422e-003
 183.554, 38.20012, 1.8572e-003
 184.554, 38.42216, 1.8728e-003
 185.554, 38.64433, 1.8882e-003
 186.554, 38.86661, 1.9030e-003
 187.554, 39.08907, 1.9186e-003
 188.554, 39.31155, 1.9339e-003
 189.554, 39.53428, 1.9494e-003
 190.554, 39.75704, 1.9649e-003
 191.554, 39.98035, 1.9799e-003
 192.554, 40.20418, 1.9952e-003
 193.554, 40.42803, 2.0105e-003
 194.554, 40.65175, 2.0262e-003
 195.554, 40.87590, 2.0413e-003
 196.554, 41.10055, 2.0567e-003
 197.554, 41.32584, 2.0717e-003
 198.554, 41.55208, 2.0877e-003
 199.554, 41.77865, 2.1030e-003
 200.554, 42.00576, 2.1183e-003
 201.554, 42.23251, 2.1340e-003
 202.554, 42.45959, 2.1489e-003
 203.554, 42.68692, 2.1645e-003
 204.554, 42.91478, 2.1797e-003
 205.554, 43.14296, 2.1952e-003
 206.554, 43.37170, 2.2108e-003
 207.554, 43.60034, 2.2261e-003
 208.554, 43.82887, 2.2421e-003
 209.554, 44.05713, 2.2575e-003
 210.554, 44.28570, 2.2737e-003
 211.554, 44.51494, 2.2895e-003
 212.554, 44.74525, 2.3054e-003
 213.554, 44.97598, 2.3218e-003
 214.554, 45.20740, 2.3381e-003
 215.554, 45.43942, 2.3547e-003
 216.554, 45.67250, 2.3708e-003
 217.554, 45.90645, 2.3869e-003
 218.554, 46.14165, 2.4037e-003
 219.554, 46.37742, 2.4197e-003
 220.554, 46.61332, 2.4360e-003
 221.554, 46.84892, 2.4518e-003
 222.554, 47.08484, 2.4675e-003
 223.554, 47.32067, 2.4834e-003
 224.554, 47.55594, 2.4984e-003
 225.554, 47.78992, 2.5135e-003
 226.554, 48.02238, 2.5283e-003
 227.554, 48.25322, 2.5432e-003
 228.554, 48.48232, 2.5576e-003
 229.554, 48.71056, 2.5715e-003
 230.554, 48.93794, 2.5858e-003
 231.554, 49.16440, 2.5996e-003
 232.554, 49.39042, 2.6140e-003
 233.554, 49.61623, 2.6281e-003
 234.554, 49.84207, 2.6423e-003
 235.554, 50.06741, 2.6567e-003
 236.554, 50.29162, 2.6711e-003
 237.554, 50.51578, 2.6855e-003
 238.554, 50.74055, 2.7002e-003
 239.554, 50.96627, 2.7149e-003
 240.554, 51.19274, 2.7298e-003
 241.554, 51.41905, 2.7446e-003
 242.554, 51.64541, 2.7599e-003
 243.554, 51.87275, 2.7751e-003
 244.554, 52.10151, 2.7899e-003
 245.554, 52.33172, 2.8052e-003
 246.554, 52.56256, 2.8204e-003
 247.554, 52.79407, 2.8359e-003
 248.554, 53.02665, 2.8508e-003
 249.554, 53.26020, 2.8662e-003
 250.554, 53.49397, 2.8819e-003
 251.554, 53.72765, 2.8973e-003
 252.554, 53.96182, 2.9126e-003
 253.554, 54.19709, 2.9279e-003
 254.554, 54.43289, 2.9432e-003
 255.554, 54.66936, 2.9583e-003
 256.554, 54.90648, 2.9733e-003
 257.554, 55.14481, 2.9890e-003
 258.554, 55.38361, 3.0045e-003
 259.554, 55.62313, 3.0203e-003
 260.554, 55.86354, 3.0356e-003
 261.554, 56.10499, 3.0508e-003
 262.554, 56.34695, 3.0664e-003
 263.554, 56.58935, 3.0815e-003
 264.554, 56.83209, 3.0972e-003
 265.554, 57.07563, 3.1127e-003
 266.554, 57.31935, 3.1284e-003
 267.554, 57.56340, 3.1437e-003
 268.554, 57.80804, 3.1593e-003
 269.554, 58.05362, 3.1750e-003
 270.554, 58.30011, 3.1907e-003
 271.554, 58.54664, 3.2059e-003
 272.554, 58.79391, 3.2215e-003
 273.554, 59.04166, 3.2373e-003
 274.554, 59.29037, 3.2527e-003
 275.554, 59.53931, 3.2682e-003
 276.554, 59.78932, 3.2837e-003
 277.554, 60.03929, 3.2992e-003
 278.554, 60.28954, 3.3149e-003
 279.554, 60.53978, 3.3300e-003
 280.554, 60.79146, 3.3457e-003
 281.554, 61.04332, 3.3608e-003
 282.554, 61.29580, 3.3764e-003
 283.554, 61.54821, 3.3917e-003
 284.554, 61.80107, 3.4078e-003
 285.554, 62.05425, 3.4234e-003
 286.554, 62.30843, 3.4384e-003
 287.554, 62.56259, 3.4536e-003
 288.554, 62.81675, 3.4697e-003
 289.554, 63.07092, 3.4854e-003
 290.554, 63.32593, 3.5004e-003
 291.554, 63.58098, 3.5158e-003
 292.554, 63.83658, 3.5318e-003
 293.554, 64.09249, 3.5469e-003
 294.554, 64.34962, 3.5628e-003
 295.554, 64.60697, 3.5788e-003
 296.554, 64.86470, 3.5938e-003
 297.554, 65.12229, 3.6095e-003
 298.554, 65.38064, 3.6262e-003
 299.554, 65.63953, 3.6424e-003
 300.554, 65.89929, 3.6579e-003
 301.554, 66.15913, 3.6728e-003
 302.554, 66.41887, 3.6880e-003
 303.554, 66.67836, 3.7052e-003
 304.554, 66.93807, 3.7204e-003
 305.554, 67.19849, 3.7354e-003
 306.554, 67.45799, 3.7510e-003
 307.554, 67.71775, 3.7680e-003
 308.554, 67.97823, 3.7831e-003
 309.554, 68.23993, 3.7986e-003
 310.554, 68.50209, 3.8152e-003
 311.554, 68.76454, 3.8306e-003
 312.554, 69.02710, 3.8457e-003
 313.554, 69.29032, 3.8612e-003
 314.554, 69.55355, 3.8762e-003
 315.554, 69.81729, 3.8924e-003
 316.554, 70.07997, 3.9076e-003
 317.554, 70.34280, 3.9230e-003
 318.554, 70.60545, 3.9381e-003
 319.554, 70.86787, 3.9546e-003
 320.554, 71.13096, 3.9694e-003
 321.554, 71.39527, 3.9862e-003
 322.554, 71.66029, 4.0008e-003
 323.554, 71.92552, 4.0160e-003
 324.554, 72.19061, 4.0309e-003
 325.554, 72.45591, 4.0475e-003
 326.554, 72.72158, 4.0627e-003
 327.554, 72.98799, 4.0777e-003
 328.554, 73.25485, 4.0927e-003
 329.554, 73.52227, 4.1095e-003
 330.554, 73.79040, 4.1248e-003
 331.554, 74.05874, 4.1401e-003
 332.554, 74.32704, 4.1566e-003
 333.554, 74.59566, 4.1717e-003
 334.554, 74.86512, 4.1869e-003
 335.554, 75.13517, 4.2036e-003
 336.554, 75.40621, 4.2188e-003
 337.554, 75.67738, 4.2336e-003
 338.554, 75.94777, 4.2491e-003
 339.554, 76.21715, 4.2639e-003
 340.554, 76.48707, 4.2803e-003
 341.554, 76.75740, 4.2950e-003
 342.554, 77.02832, 4.3105e-003
 343.554, 77.29954, 4.3256e-003
 344.554, 77.57091, 4.3419e-003
 345.554, 77.84320, 4.3570e-003
 346.554, 78.11557, 4.3723e-003
 347.554, 78.38800, 4.3876e-003
 348.554, 78.66095, 4.4045e-003
 349.554, 78.93515, 4.4198e-003
 350.554, 79.20993, 4.4349e-003
 351.554, 79.48482, 4.4499e-003
 352.554, 79.76048, 4.4653e-003
 353.554, 80.03595, 4.4813e-003
 354.554, 80.31209, 4.4962e-003
 355.554, 80.58743, 4.5130e-003
 356.554, 80.86311, 4.5279e-003
 357.554, 81.13926, 4.5430e-003
 358.554, 81.41586, 4.5594e-003
 359.554, 81.69326, 4.5744e-003
 360.554, 81.97022, 4.5897e-003
 361.554, 82.24749, 4.6045e-003
 362.554, 82.52483, 4.6211e-003
 363.554, 82.80208, 4.6358e-003
 364.554, 83.07953, 4.6515e-003
 365.554, 83.35818, 4.6663e-003
 366.554, 83.63759, 4.6828e-003
 367.554, 83.91795, 4.6977e-003
 368.554, 84.19814, 4.7128e-003
 369.554, 84.47779, 4.7281e-003
 370.554, 84.75760, 4.7451e-003
 371.554, 85.03882, 4.7601e-003
 372.554, 85.31951, 4.7752e-003
 373.554, 85.59930, 4.7905e-003
 374.554, 85.87952, 4.8047e-003
 375.554, 86.16124, 4.8218e-003
 376.554, 86.44265, 4.8369e-003
 377.554, 86.72435, 4.8519e-003
 378.554, 87.00576, 4.8671e-003
 379.554, 87.28763, 4.8817e-003
 380.554, 87.57074, 4.8986e-003
 381.554, 87.85451, 4.9138e-003
 382.554, 88.13837, 4.9289e-003
 383.554, 88.42242, 4.9444e-003
 384.554, 88.70732, 4.9609e-003
 385.554, 88.99223, 4.9764e-003
 386.554, 89.27777, 4.9918e-003
 387.554, 89.56372, 5.0068e-003
 388.554, 89.85003, 5.0235e-003
 389.554, 90.13566, 5.0391e-003
 390.554, 90.42157, 5.0537e-003
 391.554, 90.70863, 5.0686e-003
 392.554, 90.99650, 5.0856e-003
 393.554, 91.28459, 5.1003e-003
 394.554, 91.57313, 5.1158e-003
 395.554, 91.86176, 5.1312e-003
 396.554, 92.15091, 5.1476e-003
 397.554, 92.44018, 5.1627e-003
 398.554, 92.72938, 5.1775e-003
 399.554, 93.01828, 5.1929e-003
 400.554, 93.30771, 5.2091e-003
 401.554, 93.59833, 5.2240e-003
 402.554, 93.88961, 5.2390e-003
 403.554, 94.18159, 5.2542e-003
 404.554, 94.47386, 5.2699e-003
 405.554, 94.76669, 5.2861e-003
 406.554, 95.05930, 5.3014e-003
 407.554, 95.35236, 5.3161e-003
 408.554, 95.64590, 5.3318e-003
 409.554, 95.93913, 5.3486e-003
 410.554, 96.23194, 5.3632e-003
 411.554, 96.52437, 5.3783e-003
 412.554, 96.81734, 5.3950e-003
 413.554, 97.11170, 5.4096e-003
 414.554, 97.40611, 5.4251e-003
 415.554, 97.70029, 5.4405e-003
 416.554, 97.99523, 5.4574e-003
 417.554, 98.29192, 5.4720e-003
 418.554, 98.58806, 5.4872e-003
 419.554, 98.88379, 5.5021e-003
 420.554, 99.17982, 5.5175e-003
 421.554, 99.47637, 5.5329e-003
 422.554, 99.77259, 5.5497e-003
 423.554,100.069, 5.5645e-003
 424.554,100.366, 5.5795e-003
 425.554,100.664, 5.5947e-003
 426.554,100.962, 5.6111e-003
 427.554,101.261, 5.6264e-003
 428.554,101.559, 5.6416e-003
 429.554,101.857, 5.6564e-003
 430.554,102.156, 5.6715e-003
 431.554,102.455, 5.6889e-003
 432.554,102.756, 5.7037e-003
 433.554,103.056, 5.7189e-003
 434.554,103.357, 5.7340e-003
 435.554,103.658, 5.7494e-003
 436.554,103.958, 5.7669e-003
 437.554,104.259, 5.7826e-003
 438.554,104.562, 5.7983e-003
 439.554,104.866, 5.8145e-003
 440.554,105.173, 5.8310e-003
 441.554,105.481, 5.8485e-003
 442.554,105.79, 5.8648e-003
 443.554,106.1, 5.8820e-003
 444.554,106.41, 5.8995e-003
 445.554,106.719, 5.9147e-003
 446.554,107.027, 5.9301e-003
 447.554,107.335, 5.9457e-003
 448.554,107.64, 5.9600e-003
 449.554,107.942, 5.9742e-003
 450.554,108.241, 5.9896e-003
 451.554,108.538, 6.0041e-003
 452.554,108.832, 6.0186e-003
 453.554,109.125, 6.0342e-003
 454.554,109.418, 6.0484e-003
 455.554,109.711, 6.0625e-003
 456.554,110.005, 6.0767e-003
 457.554,110.299, 6.0916e-003
 458.554,110.595, 6.1076e-003
 459.554,110.89, 6.1228e-003
 460.554,111.187, 6.1382e-003
 461.554,111.485, 6.1528e-003
 462.554,111.784, 6.1683e-003
 463.554,112.085, 6.1857e-003
 464.554,112.387, 6.2007e-003
 465.554,112.69, 6.2150e-003
 466.554,112.993, 6.2311e-003
 467.554,113.298, 6.2471e-003
 468.554,113.604, 6.2619e-003
 469.554,113.912, 6.2775e-003
 470.554,114.219, 6.2941e-003
 471.554,114.528, 6.3093e-003
 472.554,114.836, 6.3244e-003
 473.554,115.145, 6.3399e-003
 474.554,115.456, 6.3555e-003
 475.554,115.767, 6.3707e-003
 476.554,116.079, 6.3873e-003
 477.554,116.392, 6.4028e-003
 478.554,116.706, 6.4179e-003
 479.554,117.02, 6.4330e-003
 480.554,117.335, 6.4482e-003
 481.554,117.65, 6.4658e-003
 482.554,117.964, 6.4808e-003
 483.554,118.281, 6.4978e-003
 484.554,118.598, 6.5128e-003
 485.554,118.916, 6.5279e-003
 486.554,119.233, 6.5429e-003
 487.554,119.552, 6.5585e-003
 488.554,119.871, 6.5755e-003
 489.554,120.19, 6.5907e-003
 490.554,120.51, 6.6060e-003
 491.554,120.831, 6.6230e-003
 492.554,121.151, 6.6382e-003
 493.554,121.471, 6.6535e-003
 494.554,121.793, 6.6690e-003
 495.554,122.115, 6.6844e-003
 496.554,122.436, 6.6994e-003
 497.554,122.757, 6.7164e-003
 498.554,123.077, 6.7315e-003
 499.554,123.4, 6.7472e-003
 500.554,123.723, 6.7631e-003
 501.554,124.047, 6.7786e-003
 502.554,124.372, 6.7969e-003
 503.554,124.699, 6.8132e-003
 504.554,125.029, 6.8298e-003
 505.554,125.359, 6.8464e-003
 506.554,125.691, 6.8628e-003
 507.554,126.022, 6.8810e-003
 508.554,126.354, 6.8970e-003
 509.554,126.686, 6.9130e-003
 510.554,127.016, 6.9279e-003
 511.554,127.341, 6.9423e-003
 512.554,127.662, 6.9566e-003
 513.554,127.979, 6.9714e-003
 514.554,128.294, 6.9870e-003
 515.554,128.608, 7.0014e-003
 516.554,128.921, 7.0154e-003
 517.554,129.232, 7.0301e-003
 518.554,129.544, 7.0447e-003
 519.554,129.857, 7.0599e-003
 520.554,130.171, 7.0769e-003
 521.554,130.486, 7.0918e-003
 522.554,130.803, 7.1071e-003
 523.554,131.12, 7.1218e-003
 524.554,131.438, 7.1369e-003
 525.554,131.758, 7.1547e-003
 526.554,132.079, 7.1698e-003
 527.554,132.402, 7.1851e-003
 528.554,132.725, 7.2007e-003
 529.554,133.05, 7.2177e-003
 530.554,133.374, 7.2325e-003
 531.554,133.699, 7.2479e-003
 532.554,134.025, 7.2630e-003
 533.554,134.351, 7.2808e-003
 534.554,134.681, 7.2965e-003
 535.554,135.01, 7.3115e-003
 536.554,135.34, 7.3270e-003
 537.554,135.67, 7.3421e-003
 538.554,136.001, 7.3597e-003
 539.554,136.332, 7.3751e-003
 540.554,136.664, 7.3904e-003
 541.554,136.996, 7.4063e-003
 542.554,137.329, 7.4222e-003
 543.554,137.664, 7.4376e-003
 544.554,138, 7.4551e-003
 545.554,138.336, 7.4708e-003
 546.554,138.673, 7.4859e-003
 547.554,139.01, 7.5019e-003
 548.554,139.345, 7.5174e-003
 549.554,139.681, 7.5345e-003
 550.554,140.017, 7.5497e-003
 551.554,140.354, 7.5650e-003
 552.554,140.69, 7.5806e-003
 553.554,141.026, 7.5976e-003
 554.554,141.362, 7.6131e-003
 555.554,141.7, 7.6284e-003
 556.554,142.037, 7.6461e-003
 557.554,142.376, 7.6612e-003
 558.554,142.716, 7.6769e-003
 559.554,143.056, 7.6925e-003
 560.554,143.396, 7.7081e-003
 561.554,143.736, 7.7241e-003
 562.554,144.076, 7.7399e-003
 563.554,144.415, 7.7572e-003
 564.554,144.755, 7.7727e-003
 565.554,145.096, 7.7884e-003
 566.554,145.437, 7.8039e-003
 567.554,145.778, 7.8215e-003
 568.554,146.119, 7.8370e-003
 569.554,146.46, 7.8523e-003
 570.554,146.8, 7.8685e-003
 571.554,147.14, 7.8836e-003
 572.554,147.482, 7.9011e-003
 573.554,147.824, 7.9172e-003
 574.554,148.166, 7.9323e-003
 575.554,148.509, 7.9487e-003
 576.554,148.853, 7.9644e-003
 577.554,149.199, 7.9801e-003
 578.554,149.544, 7.9974e-003
 579.554,149.888, 8.0137e-003
 580.554,150.232, 8.0292e-003
 581.554,150.576, 8.0445e-003
 582.554,150.92, 8.0599e-003
 583.554,151.264, 8.0755e-003
 584.554,151.608, 8.0933e-003
 585.554,151.951, 8.1092e-003
 586.554,152.295, 8.1249e-003
 587.554,152.64, 8.1405e-003
 588.554,152.986, 8.1565e-003
 589.554,153.333, 8.1743e-003
 590.554,153.677, 8.1896e-003
 591.554,154.023, 8.2058e-003
 592.554,154.37, 8.2214e-003
 593.554,154.718, 8.2374e-003
 594.554,155.066, 8.2550e-003
 595.554,155.414, 8.2710e-003
 596.554,155.761, 8.2868e-003
 597.554,156.109, 8.3027e-003
 598.554,156.459, 8.3177e-003
 599.554,156.808, 8.3333e-003
 600.554,157.158, 8.3488e-003
 601.554,157.507, 8.3669e-003
 602.554,157.854, 8.3829e-003
 603.554,158.202, 8.3986e-003
 604.554,158.552, 8.4143e-003
 605.554,158.901, 8.4305e-003
 606.554,159.25, 8.4468e-003
 607.554,159.6, 8.4650e-003
 608.554,159.952, 8.4811e-003
 609.554,160.304, 8.4974e-003
 610.554,160.659, 8.5141e-003
 611.554,161.017, 8.5310e-003
 612.554,161.378, 8.5483e-003
 613.554,161.742, 8.5655e-003
 614.554,162.105, 8.5833e-003
 615.554,162.466, 8.5998e-003
 616.554,162.826, 8.6170e-003
 617.554,163.18, 8.6322e-003
 618.554,163.53, 8.6473e-003
 619.554,163.878, 8.6614e-003
 620.554,164.222, 8.6767e-003
 621.554,164.564, 8.6916e-003
 622.554,164.904, 8.7087e-003
 623.554,165.245, 8.7241e-003
 624.554,165.584, 8.7395e-003
 625.554,165.924, 8.7548e-003
 626.554,166.266, 8.7727e-003
 627.554,166.611, 8.7887e-003
 628.554,166.957, 8.8040e-003
 629.554,167.303, 8.8196e-003
 630.554,167.65, 8.8350e-003
 631.554,167.997, 8.8504e-003
 632.554,168.346, 8.8684e-003
 633.554,168.698, 8.8845e-003
 634.554,169.05, 8.9027e-003
 635.554,169.403, 8.9180e-003
 636.554,169.757, 8.9336e-003
 637.554,170.111, 8.9499e-003
 638.554,170.465, 8.9650e-003
 639.554,170.821, 8.9808e-003
 640.554,171.177, 8.9963e-003
 641.554,171.533, 9.0156e-003
 642.554,171.89, 9.0312e-003
 643.554,172.249, 9.0470e-003
 644.554,172.606, 9.0628e-003
 645.554,172.965, 9.0808e-003
 646.554,173.325, 9.0967e-003
 647.554,173.685, 9.1123e-003
 648.554,174.045, 9.1303e-003
 649.554,174.406, 9.1468e-003
 650.554,174.768, 9.1625e-003
 651.554,175.129, 9.1788e-003
 652.554,175.49, 9.1935e-003
 653.554,175.851, 9.2099e-003
 654.554,176.212, 9.2257e-003
 655.554,176.575, 9.2416e-003
 656.554,176.939, 9.2595e-003
 657.554,177.304, 9.2756e-003
 658.554,177.668, 9.2916e-003
 659.554,178.032, 9.3073e-003
 660.554,178.396, 9.3260e-003
 661.554,178.759, 9.3420e-003
 662.554,179.123, 9.3578e-003
 663.554,179.486, 9.3736e-003
 664.554,179.849, 9.3908e-003
 665.554,180.213, 9.4065e-003
 666.554,180.579, 9.4225e-003
 667.554,180.945, 9.4404e-003
 668.554,181.314, 9.4566e-003
 669.554,181.683, 9.4723e-003
 670.554,182.051, 9.4892e-003
 671.554,182.417, 9.5057e-003
 672.554,182.782, 9.5213e-003
 673.554,183.147, 9.5388e-003
 674.554,183.511, 9.5555e-003
 675.554,183.875, 9.5710e-003
 676.554,184.24, 9.5871e-003
 677.554,184.607, 9.6057e-003
 678.554,184.976, 9.6225e-003
 679.554,185.349, 9.6393e-003
 680.554,185.725, 9.6562e-003
 681.554,186.102, 9.6735e-003
 682.554,186.482, 9.6923e-003
 683.554,186.867, 9.7095e-003
 684.554,187.252, 9.7281e-003
 685.554,187.636, 9.7443e-003
 686.554,188.018, 9.7614e-003
 687.554,188.394, 9.7767e-003
 688.554,188.763, 9.7928e-003
 689.554,189.127, 9.8087e-003
 690.554,189.49, 9.8249e-003
 691.554,189.852, 9.8411e-003
 692.554,190.215, 9.8580e-003
 693.554,190.58, 9.8744e-003
 694.554,190.947, 9.8899e-003
 695.554,191.317, 9.9071e-003
 696.554,191.689, 9.9231e-003
 697.554,192.062, 9.9395e-003
 698.554,192.433, 9.9565e-003
 699.554,192.805, 9.9720e-003
 700.554,193.177, 9.9878e-003
 701.554,193.551, 1.0004e-002
 702.554,193.928, 1.0022e-002
 703.554,194.304, 1.0037e-002
 704.554,194.68, 1.0054e-002
 705.554,195.058, 1.0071e-002
 706.554,195.436, 1.0088e-002
 707.554,195.814, 1.0104e-002
 708.554,196.193, 1.0121e-002
 709.554,196.573, 1.0138e-002
 710.554,196.954, 1.0154e-002
 711.554,197.333, 1.0171e-002
 712.554,197.713, 1.0188e-002
 713.554,198.094, 1.0204e-002
 714.554,198.475, 1.0221e-002
 715.554,198.854, 1.0237e-002
 716.554,199.234, 1.0253e-002
 717.554,199.615, 1.0271e-002
 718.554,199.997, 1.0287e-002
 719.554,200.377, 1.0303e-002
 720.554,200.754, 1.0320e-002
 721.554,201.129, 1.0336e-002
 722.554,201.504, 1.0353e-002
 723.554,201.884, 1.0370e-002
 724.554,202.267, 1.0387e-002
 725.554,202.65, 1.0405e-002
 726.554,203.037, 1.0421e-002
 727.554,203.424, 1.0438e-002
 728.554,203.808, 1.0455e-002
 729.554,204.193, 1.0471e-002
 730.554,204.578, 1.0488e-002
 731.554,204.96, 1.0505e-002
 732.554,205.342, 1.0522e-002
 733.554,205.724, 1.0538e-002
 734.554,206.107, 1.0555e-002
 735.554,206.491, 1.0572e-002
 736.554,206.874, 1.0589e-002
 737.554,207.255, 1.0606e-002
 738.554,207.638, 1.0624e-002
 739.554,208.02, 1.0650e-002
 740.554,208.404, 1.0667e-002
 741.554,208.788, 1.0684e-002
 742.554,209.169, 1.0701e-002
 743.554,209.553, 1.0719e-002
 744.554,209.936, 1.0736e-002
 745.554,210.318, 1.0753e-002
 746.554,210.702, 1.0770e-002
 747.554,211.085, 1.0787e-002
 748.554,211.468, 1.0804e-002
 749.554,211.853, 1.0822e-002
 750.554,212.237, 1.0839e-002
 751.554,212.624, 1.0857e-002
 752.554,213.015, 1.0876e-002
 753.554,213.409, 1.0895e-002
 754.554,213.809, 1.0914e-002
 755.554,214.211, 1.0935e-002
 756.554,214.608, 1.0953e-002
 757.554,215.002, 1.0969e-002
 758.554,215.392, 1.0986e-002
 759.554,215.774, 1.1021e-002
 760.554,216.153, 1.1037e-002
 761.554,216.529, 1.1055e-002
 762.554,216.903, 1.1071e-002
 763.554,217.274, 1.1087e-002
 764.554,217.646, 1.1103e-002
 765.554,218.018, 1.1120e-002
 766.554,218.391, 1.1137e-002
 767.554,218.766, 1.1154e-002
 768.554,219.143, 1.1171e-002
 769.554,219.521, 1.1187e-002
 770.554,219.899, 1.1204e-002
 771.554,220.278, 1.1221e-002
 772.554,220.656, 1.1239e-002
 773.554,221.037, 1.1256e-002
 774.554,221.416, 1.1273e-002
 775.554,221.795, 1.1290e-002
 776.554,222.176, 1.1307e-002
 777.554,222.559, 1.1324e-002
 778.554,222.943, 1.1341e-002
 779.554,223.327, 1.1357e-002
 780.554,223.71, 1.1376e-002
 781.554,224.094, 1.1393e-002
 782.554,224.481, 1.1410e-002
 783.554,224.87, 1.1428e-002
 784.554,225.26, 1.1444e-002
 785.554,225.649, 1.1465e-002
 786.554,226.038, 1.1482e-002
 787.554,226.427, 1.1498e-002
 788.554,226.819, 1.1516e-002
 789.554,227.213, 1.1533e-002
 790.554,227.605, 1.1550e-002
 791.554,227.998, 1.1567e-002
 792.554,228.398, 1.1585e-002
 793.554,228.806, 1.1602e-002
 794.554,229.218, 1.1620e-002
 795.554,229.632, 1.1640e-002
 796.554,230.046, 1.1658e-002
 797.554,230.46, 1.1675e-002
 798.554,230.878, 1.1693e-002
 799.554,231.298, 1.1710e-002
 800.554,231.72, 1.1731e-002
 801.554,232.14, 1.1748e-002
 802.554,232.556, 1.1765e-002
 803.554,232.971, 1.1782e-002
 804.554,233.388, 1.1802e-002
 805.554,233.805, 1.1820e-002
 806.554,234.225, 1.1838e-002
 807.554,234.646, 1.1856e-002
 808.554,235.071, 1.1873e-002
 809.554,235.495, 1.1890e-002
 810.554,235.921, 1.1908e-002
 811.554,236.353, 1.1930e-002
 812.554,236.786, 1.1947e-002
 813.554,237.217, 1.1965e-002
 814.554,237.644, 1.1983e-002
 815.554,238.07, 1.2004e-002
 816.554,238.498, 1.2022e-002
 817.554,238.927, 1.2040e-002
 818.554,239.356, 1.2058e-002
 819.554,239.782, 1.2075e-002
 820.554,240.204, 1.2096e-002
 821.554,240.618, 1.2112e-002
 822.554,241.022, 1.2128e-002
 823.554,241.416, 1.2147e-002
 824.554,241.805, 1.2162e-002
 825.554,242.192, 1.2179e-002
 826.554,242.58, 1.2195e-002
 827.554,242.971, 1.2214e-002
 828.554,243.364, 1.2232e-002
 829.554,243.757, 1.2248e-002
 830.554,244.149, 1.2268e-002
 831.554,244.542, 1.2284e-002
 832.554,244.934, 1.2301e-002
 833.554,245.327, 1.2317e-002
 834.554,245.719, 1.2334e-002
 835.554,246.11, 1.2350e-002
 836.554,246.501, 1.2367e-002
 837.554,246.89, 1.2384e-002
 838.554,247.28, 1.2404e-002
 839.554,247.671, 1.2421e-002
 840.554,248.06, 1.2438e-002
 841.554,248.448, 1.2454e-002
 842.554,248.837, 1.2471e-002
 843.554,249.224, 1.2488e-002
 844.554,249.613, 1.2509e-002
 845.554,250.001, 1.2525e-002
 846.554,250.387, 1.2542e-002
 847.554,250.772, 1.2559e-002
 848.554,251.157, 1.2576e-002
 849.554,251.542, 1.2593e-002
 850.554,251.928, 1.2614e-002
 851.554,252.315, 1.2630e-002
 852.554,252.701, 1.2647e-002
 853.554,253.085, 1.2664e-002
 854.554,253.469, 1.2684e-002
 855.554,253.854, 1.2701e-002
 856.554,254.239, 1.2719e-002
 857.554,254.624, 1.2735e-002
 858.554,255.011, 1.2753e-002
 859.554,255.399, 1.2770e-002
 860.554,255.787, 1.2787e-002
 861.554,256.17, 1.2804e-002
 862.554,256.553, 1.2824e-002
 863.554,256.939, 1.2842e-002
 864.554,257.327, 1.2859e-002
 865.554,257.712, 1.2876e-002
 866.554,258.096, 1.2893e-002
 867.554,258.479, 1.2911e-002
 868.554,258.861, 1.2928e-002
 869.554,259.244, 1.2946e-002
 870.554,259.632, 1.2967e-002
 871.554,260.025, 1.2985e-002
 872.554,260.423, 1.3004e-002
 873.554,260.827, 1.3023e-002
 874.554,261.235, 1.3041e-002
 875.554,261.637, 1.3062e-002
 876.554,262.034, 1.3080e-002
 877.554,262.429, 1.3097e-002
 878.554,262.818, 1.3114e-002
 879.554,263.204, 1.3131e-002
 880.554,263.589, 1.3148e-002
 881.554,263.973, 1.3170e-002
 882.554,264.353, 1.3187e-002
 883.554,264.722, 1.3203e-002
 884.554,265.084, 1.3219e-002
 885.554,265.447, 1.3240e-002
 886.554,265.819, 1.3258e-002
 887.554,266.204, 1.3277e-002
 888.554,266.601, 1.3299e-002
 889.554,267.001, 1.3317e-002
 890.554,267.4, 1.3335e-002
 891.554,267.797, 1.3352e-002
 892.554,268.186, 1.3369e-002
 893.554,268.573, 1.3390e-002
 894.554,268.963, 1.3408e-002
 895.554,269.357, 1.3425e-002
 896.554,269.754, 1.3446e-002
 897.554,270.152, 1.3464e-002
 898.554,270.552, 1.3481e-002
 899.554,270.952, 1.3499e-002
 900.554,271.352, 1.3516e-002
 901.554,271.756, 1.3539e-002
 902.554,272.163, 1.3557e-002
 903.554,272.576, 1.3575e-002
 904.554,272.998, 1.3593e-002
 905.554,273.425, 1.3614e-002
 906.554,273.848, 1.3632e-002
 907.554,274.272, 1.3650e-002
 908.554,274.701, 1.3671e-002
 909.554,275.137, 1.3690e-002
 910.554,275.576, 1.3710e-002
 911.554,276.01, 1.3729e-002
 912.554,276.442, 1.3747e-002
 913.554,276.879, 1.3768e-002
 914.554,277.323, 1.3788e-002
 915.554,277.774, 1.3807e-002
 916.554,278.244, 1.3829e-002
 917.554,278.753, 1.3850e-002
 918.554,279.312, 1.3872e-002
 919.554,279.885, 1.3894e-002
 920.554,280.385, 1.3910e-002
 921.554,280.83, 1.3925e-002
 922.554,281.267, 1.3947e-002
 923.554,281.724, 1.3968e-002
 924.554,282.193, 1.3989e-002
 925.554,282.644, 1.4011e-002
 926.554,283.061, 1.4027e-002
 927.554,283.454, 1.4046e-002
 928.554,283.835, 1.4063e-002
 929.554,284.213, 1.4080e-002
 930.554,284.596, 1.4098e-002
 931.554,284.989, 1.4116e-002
 932.554,285.388, 1.4137e-002
 933.554,285.786, 1.4158e-002
 934.554,286.181, 1.4175e-002
 935.554,286.578, 1.4192e-002
 936.554,286.978, 1.4210e-002
 937.554,287.386, 1.4233e-002
 938.554,287.794, 1.4250e-002
 939.554,288.186, 1.4269e-002
 940.554,288.566, 1.4285e-002
 941.554,288.943, 1.4303e-002
 942.554,289.323, 1.4324e-002
 943.554,289.707, 1.4341e-002
 944.554,290.095, 1.4359e-002
 945.554,290.482, 1.4375e-002
 946.554,290.868, 1.4393e-002
 947.554,291.255, 1.4413e-002
 948.554,291.641, 1.4430e-002
 949.554,292.025, 1.4450e-002
 950.554,292.406, 1.4468e-002
 951.554,292.791, 1.4486e-002
 952.554,293.183, 1.4507e-002
 953.554,293.575, 1.4525e-002
 954.554,293.961, 1.4546e-002
 955.554,294.338, 1.4563e-002
 956.554,294.712, 1.4581e-002
 957.554,295.087, 1.4601e-002
 958.554,295.466, 1.4616e-002
 959.554,295.844, 1.4635e-002
 960.554,296.218, 1.4652e-002
 961.554,296.588, 1.4670e-002
 962.554,296.957, 1.4688e-002
 963.554,297.327, 1.4706e-002
 964.554,297.696, 1.4724e-002
 965.554,298.068, 1.4743e-002
 966.554,298.446, 1.4763e-002
 967.554,298.828, 1.4782e-002
 968.554,299.209, 1.4801e-002
 969.554,299.588, 1.4821e-002
 970.554,299.968, 1.4839e-002
 971.554,300.35, 1.4859e-002
 972.554,300.734, 1.4880e-002
 973.554,301.118, 1.4899e-002
 974.554,301.502, 1.4918e-002
 975.554,301.883, 1.4940e-002
 976.554,302.261, 1.4959e-002
 977.554,302.639, 1.4978e-002
 978.554,303.017, 1.4999e-002
 979.554,303.393, 1.5018e-002
 980.554,303.762, 1.5037e-002
 981.554,304.124, 1.5056e-002
 982.554,304.484, 1.5075e-002
 983.554,304.846, 1.5093e-002
 984.554,305.212, 1.5114e-002
 985.554,305.579, 1.5133e-002
 986.554,305.947, 1.5154e-002
 987.554,306.308, 1.5171e-002
 988.554,306.661, 1.5189e-002
 989.554,307.014, 1.5210e-002
 990.554,307.375, 1.5233e-002
 991.554,307.746, 1.5252e-002
 992.554,308.125, 1.5273e-002
 993.554,308.51, 1.5294e-002
 994.554,308.89, 1.5313e-002
 995.554,309.256, 1.5330e-002
 996.554,309.612, 1.5351e-002
 997.554,309.962, 1.5369e-002
 998.554,310.314, 1.5391e-002
 999.554,310.672, 1.5411e-002
1000.55,311.034, 1.5430e-002
1001.55,311.398, 1.5452e-002
1002.55,311.759, 1.5470e-002
1003.55,312.123, 1.5490e-002
1004.55,312.489, 1.5512e-002
1005.55,312.855, 1.5531e-002
1006.55,313.223, 1.5553e-002
1007.55,313.591, 1.5572e-002
1008.55,313.959, 1.5595e-002
1009.55,314.328, 1.5616e-002
1010.55,314.698, 1.5637e-002
1011.55,315.069, 1.5656e-002
1012.55,315.443, 1.5676e-002
1013.55,315.819, 1.5699e-002
1014.55,316.196, 1.5720e-002
1015.55,316.57, 1.5740e-002
1016.55,316.939, 1.5758e-002
1017.55,317.306, 1.5781e-002
1018.55,317.674, 1.5800e-002
1019.55,318.046, 1.5823e-002
1020.55,318.423, 1.5843e-002
1021.55,318.801, 1.5866e-002
1022.55,319.175, 1.5888e-002
1023.55,319.533, 1.5909e-002
1024.55,319.878, 1.5928e-002
1025.55,320.231, 1.5951e-002
1026.55,320.598, 1.5974e-002
1027.55,320.975, 1.5995e-002
1028.55,321.359, 1.6017e-002
1029.55,321.752, 1.6039e-002
1030.55,322.152, 1.6060e-002
1031.55,322.543, 1.6082e-002
1032.55,322.915, 1.6100e-002
1033.55,323.275, 1.6122e-002
1034.55,323.639, 1.6142e-002
1035.55,324.011, 1.6165e-002
1036.55,324.384, 1.6184e-002
1037.55,324.746, 1.6205e-002
1038.55,325.101, 1.6225e-002
1039.55,325.461, 1.6247e-002