File: data_backup/8.1mm/moon000s3r1-10.1mm.csv
#EXPORTTYPE:           ,DATA ALL
#FILE:                 ,moonstoneSam3.ngb-sle
#FORMAT:               ,NETZSCH5
#FTYPE:                ,ANSI
#IDENTITY:             ,moonstone 3 short
#DECIMAL:              ,POINT
#SEPARATOR:            ,COMMA
#MTYPE:                ,DIL
#INSTRUMENT:           ,NETZSCH DIL 402C
#PROJECT:              ,feldspar
#DATE/TIME:            ,9/16/2019 9:41:48 AM (UTC-5)
#CORR. FILE:           ,
#TEMPCAL:              ,TCALZERO.TMX
#LABORATORY:           ,Mineral Physics
#OPERATOR:             ,PAG
#REMARK:               ,bare, norm start, for oligoclase, moonstone #3 short and reaonably thin. rectancgle, large up
#SAMPLE:               ,moonstone 3 fresh
#SAMPLE LENGTH /mm:    ,10.090
#MATERIAL:             ,sapphire stnd
#MEASMODE:             ,Standard Expansion
#PURGE GAS 1:          ,ARGON
#FLOW RATE 1 /(ml/min):,75
#M.RANGE /µm:          ,500
#CORR. CODE:           ,010
#RANGE:                ,20.0°C/3.0(K/min)/800.0°C
#SEGMENT:              ,S1/1
#SEG. 1:               ,20.0°C/3.0(K/min)/800.0°C

##Temp./°C,Time/min,dL/Lo
 22.42400,  0.00000, 2.1575e-005
 23.42400,  4.83919, 3.7967e-006
 24.42400,  5.33347,-3.9641e-006
 25.42400,  5.68534,-8.4632e-006
 26.42400,  5.98029,-1.0512e-005
 27.42400,  6.24422,-1.0877e-005
 28.42400,  6.48693,-9.2396e-006
 29.42400,  6.71527,-5.7516e-006
 30.42400,  6.93376,-1.2460e-006
 31.42400,  7.14526, 5.0667e-006
 32.42400,  7.35252, 1.2935e-005
 33.42400,  7.55778, 2.1674e-005
 34.42400,  7.76124, 3.1209e-005
 35.42400,  7.96372, 4.2324e-005
 36.42400,  8.16577, 5.4193e-005
 37.42400,  8.36705, 6.6927e-005
 38.42400,  8.57004, 8.1147e-005
 39.42400,  8.77284, 9.5343e-005
 40.42400,  8.97529, 1.1033e-004
 41.42400,  9.17685, 1.2610e-004
 42.42400,  9.37763, 1.4237e-004
 43.42400,  9.57836, 1.5882e-004
 44.42400,  9.77902, 1.7525e-004
 45.42400,  9.97879, 1.9208e-004
 46.42400, 10.17782, 2.0734e-004
 47.42400, 10.37575, 2.2187e-004
 48.42400, 10.57244, 2.3787e-004
 49.42400, 10.76786, 2.5424e-004
 50.42400, 10.96196, 2.6975e-004
 51.42400, 11.15493, 2.8577e-004
 52.42400, 11.34704, 3.0217e-004
 53.42400, 11.53835, 3.1715e-004
 54.42400, 11.72874, 3.3279e-004
 55.42400, 11.91840, 3.4846e-004
 56.42400, 12.10682, 3.6480e-004
 57.42400, 12.29470, 3.8077e-004
 58.42400, 12.48189, 3.9667e-004
 59.42400, 12.66849, 4.1302e-004
 60.42400, 12.85460, 4.3075e-004
 61.42400, 13.04017, 4.4789e-004
 62.42400, 13.22527, 4.6591e-004
 63.42400, 13.41032, 4.8425e-004
 64.42400, 13.59548, 5.0238e-004
 65.42400, 13.78079, 5.2024e-004
 66.42400, 13.96674, 5.3903e-004
 67.42400, 14.15283, 5.5799e-004
 68.42400, 14.33919, 5.7738e-004
 69.42400, 14.52579, 5.9683e-004
 70.42400, 14.71251, 6.1761e-004
 71.42400, 14.90024, 6.3772e-004
 72.42400, 15.08841, 6.5945e-004
 73.42400, 15.27708, 6.8116e-004
 74.42400, 15.46599, 7.0345e-004
 75.42400, 15.65423, 7.2363e-004
 76.42400, 15.84327, 7.4504e-004
 77.42400, 16.03255, 7.6512e-004
 78.42400, 16.22216, 7.8601e-004
 79.42400, 16.41223, 8.0715e-004
 80.42400, 16.60216, 8.2864e-004
 81.42400, 16.79231, 8.5000e-004
 82.42400, 16.98335, 8.7338e-004
 83.42400, 17.17512, 8.9657e-004
 84.42400, 17.36776, 9.1821e-004
 85.42400, 17.56080, 9.3947e-004
 86.42400, 17.75382, 9.6068e-004
 87.42400, 17.94731, 9.8202e-004
 88.42400, 18.14140, 1.0036e-003
 89.42400, 18.33584, 1.0253e-003
 90.42400, 18.53049, 1.0470e-003
 91.42400, 18.72535, 1.0708e-003
 92.42400, 18.92032, 1.0946e-003
 93.42400, 19.11581, 1.1198e-003
 94.42400, 19.31177, 1.1441e-003
 95.42400, 19.50858, 1.1684e-003
 96.42400, 19.70589, 1.1927e-003
 97.42400, 19.90388, 1.2156e-003
 98.42400, 20.10209, 1.2390e-003
 99.42400, 20.30066, 1.2629e-003
100.424, 20.49995, 1.2870e-003
101.424, 20.69961, 1.3116e-003
102.424, 20.89988, 1.3360e-003
103.424, 21.10057, 1.3592e-003
104.424, 21.30193, 1.3804e-003
105.424, 21.50360, 1.4018e-003
106.424, 21.70552, 1.4236e-003
107.424, 21.90762, 1.4453e-003
108.424, 22.10979, 1.4672e-003
109.424, 22.31171, 1.4876e-003
110.424, 22.51390, 1.5094e-003
111.424, 22.71649, 1.5307e-003
112.424, 22.91985, 1.5523e-003
113.424, 23.12349, 1.5736e-003
114.424, 23.32733, 1.5946e-003
115.424, 23.53132, 1.6137e-003
116.424, 23.73547, 1.6348e-003
117.424, 23.93967, 1.6570e-003
118.424, 24.14466, 1.6787e-003
119.424, 24.34967, 1.7007e-003
120.424, 24.55486, 1.7221e-003
121.424, 24.76037, 1.7443e-003
122.424, 24.96606, 1.7653e-003
123.424, 25.17282, 1.7867e-003
124.424, 25.38032, 1.8083e-003
125.424, 25.58841, 1.8300e-003
126.424, 25.79607, 1.8522e-003
127.424, 26.00398, 1.8746e-003
128.424, 26.21186, 1.8970e-003
129.424, 26.42049, 1.9190e-003
130.424, 26.62937, 1.9411e-003
131.424, 26.83810, 1.9636e-003
132.424, 27.04755, 1.9855e-003
133.424, 27.25743, 2.0070e-003
134.424, 27.46800, 2.0294e-003
135.424, 27.67912, 2.0514e-003
136.424, 27.89036, 2.0732e-003
137.424, 28.10194, 2.0944e-003
138.424, 28.31306, 2.1164e-003
139.424, 28.52385, 2.1370e-003
140.424, 28.73492, 2.1579e-003
141.424, 28.94634, 2.1797e-003
142.424, 29.15822, 2.2009e-003
143.424, 29.37122, 2.2233e-003
144.424, 29.58472, 2.2455e-003
145.424, 29.79887, 2.2674e-003
146.424, 30.01263, 2.2900e-003
147.424, 30.22572, 2.3124e-003
148.424, 30.43868, 2.3350e-003
149.424, 30.65186, 2.3571e-003
150.424, 30.86611, 2.3797e-003
151.424, 31.08106, 2.4018e-003
152.424, 31.29627, 2.4239e-003
153.424, 31.51172, 2.4473e-003
154.424, 31.72737, 2.4697e-003
155.424, 31.94350, 2.4920e-003
156.424, 32.15968, 2.5139e-003
157.424, 32.37593, 2.5364e-003
158.424, 32.59190, 2.5580e-003
159.424, 32.80764, 2.5803e-003
160.424, 33.02348, 2.6022e-003
161.424, 33.23943, 2.6246e-003
162.424, 33.45613, 2.6464e-003
163.424, 33.67347, 2.6682e-003
164.424, 33.89157, 2.6902e-003
165.424, 34.11003, 2.7124e-003
166.424, 34.32872, 2.7341e-003
167.424, 34.54765, 2.7567e-003
168.424, 34.76689, 2.7783e-003
169.424, 34.98687, 2.8004e-003
170.424, 35.20740, 2.8224e-003
171.424, 35.42821, 2.8443e-003
172.424, 35.64861, 2.8669e-003
173.424, 35.86894, 2.8895e-003
174.424, 36.08917, 2.9122e-003
175.424, 36.30957, 2.9345e-003
176.424, 36.53045, 2.9572e-003
177.424, 36.75180, 2.9788e-003
178.424, 36.97354, 3.0010e-003
179.424, 37.19549, 3.0232e-003
180.424, 37.41723, 3.0439e-003
181.424, 37.63913, 3.0657e-003
182.424, 37.86105, 3.0884e-003
183.424, 38.08293, 3.1105e-003
184.424, 38.30542, 3.1328e-003
185.424, 38.52822, 3.1543e-003
186.424, 38.75153, 3.1759e-003
187.424, 38.97520, 3.1983e-003
188.424, 39.19931, 3.2199e-003
189.424, 39.42470, 3.2418e-003
190.424, 39.65060, 3.2624e-003
191.424, 39.87636, 3.2832e-003
192.424, 40.10201, 3.3053e-003
193.424, 40.32760, 3.3268e-003
194.424, 40.55389, 3.3485e-003
195.424, 40.77978, 3.3707e-003
196.424, 41.00605, 3.3918e-003
197.424, 41.23243, 3.4094e-003
198.424, 41.45976, 3.4303e-003
199.424, 41.68779, 3.4528e-003
200.424, 41.91604, 3.4751e-003
201.424, 42.14413, 3.4971e-003
202.424, 42.37266, 3.5199e-003
203.424, 42.60164, 3.5422e-003
204.424, 42.83169, 3.5647e-003
205.424, 43.06187, 3.5873e-003
206.424, 43.29229, 3.6096e-003
207.424, 43.52260, 3.6323e-003
208.424, 43.75303, 3.6550e-003
209.424, 43.98371, 3.6770e-003
210.424, 44.21458, 3.6981e-003
211.424, 44.44610, 3.7195e-003
212.424, 44.67864, 3.7416e-003
213.424, 44.91213, 3.7639e-003
214.424, 45.14574, 3.7860e-003
215.424, 45.37905, 3.8082e-003
216.424, 45.61177, 3.8301e-003
217.424, 45.84433, 3.8509e-003
218.424, 46.07701, 3.8732e-003
219.424, 46.31070, 3.8956e-003
220.424, 46.54494, 3.9177e-003
221.424, 46.77960, 3.9411e-003
222.424, 47.01466, 3.9646e-003
223.424, 47.24992, 3.9877e-003
224.424, 47.48551, 4.0114e-003
225.424, 47.72140, 4.0342e-003
226.424, 47.95795, 4.0581e-003
227.424, 48.19543, 4.0807e-003
228.424, 48.43399, 4.1045e-003
229.424, 48.67371, 4.1275e-003
230.424, 48.91405, 4.1504e-003
231.424, 49.15472, 4.1745e-003
232.424, 49.39568, 4.1980e-003
233.424, 49.63727, 4.2207e-003
234.424, 49.87948, 4.2435e-003
235.424, 50.12154, 4.2660e-003
236.424, 50.36280, 4.2887e-003
237.424, 50.60321, 4.3108e-003
238.424, 50.84217, 4.3326e-003
239.424, 51.07987, 4.3541e-003
240.424, 51.31583, 4.3747e-003
241.424, 51.55062, 4.3958e-003
242.424, 51.78392, 4.4168e-003
243.424, 52.01602, 4.4375e-003
244.424, 52.24711, 4.4590e-003
245.424, 52.47746, 4.4794e-003
246.424, 52.70703, 4.5002e-003
247.424, 52.93592, 4.5204e-003
248.424, 53.16436, 4.5306e-003
249.424, 53.39244, 4.5237e-003
250.424, 53.62109, 4.5376e-003
251.424, 53.84989, 4.5493e-003
252.424, 54.07954, 4.5645e-003
253.424, 54.30981, 4.5826e-003
254.424, 54.54091, 4.6025e-003
255.424, 54.77294, 4.6245e-003
256.424, 55.00530, 4.6462e-003
257.424, 55.23816, 4.6688e-003
258.424, 55.47183, 4.6900e-003
259.424, 55.70703, 4.7127e-003
260.424, 55.94336, 4.7350e-003
261.424, 56.18027, 4.7577e-003
262.424, 56.41771, 4.7807e-003
263.424, 56.65602, 4.8024e-003
264.424, 56.89560, 4.8253e-003
265.424, 57.13618, 4.8469e-003
266.424, 57.37765, 4.8695e-003
267.424, 57.61978, 4.8913e-003
268.424, 57.86222, 4.9139e-003
269.424, 58.10561, 4.9366e-003
270.424, 58.34941, 4.9588e-003
271.424, 58.59375, 4.9818e-003
272.424, 58.83848, 5.0051e-003
273.424, 59.08411, 5.0271e-003
274.424, 59.33077, 5.0501e-003
275.424, 59.57804, 5.0734e-003
276.424, 59.82627, 5.0958e-003
277.424, 60.07520, 5.1183e-003
278.424, 60.32528, 5.1412e-003
279.424, 60.57652, 5.1632e-003
280.424, 60.82925, 5.1865e-003
281.424, 61.08252, 5.2079e-003
282.424, 61.33610, 5.2313e-003
283.424, 61.58996, 5.2537e-003
284.424, 61.84425, 5.2760e-003
285.424, 62.09894, 5.2984e-003
286.424, 62.35345, 5.3207e-003
287.424, 62.60838, 5.3441e-003
288.424, 62.86406, 5.3666e-003
289.424, 63.12073, 5.3895e-003
290.424, 63.37802, 5.4107e-003
291.424, 63.63575, 5.4342e-003
292.424, 63.89366, 5.4562e-003
293.424, 64.15210, 5.4789e-003
294.424, 64.41109, 5.5009e-003
295.424, 64.67070, 5.5242e-003
296.424, 64.93056, 5.5459e-003
297.424, 65.19156, 5.5687e-003
298.424, 65.45348, 5.5903e-003
299.424, 65.71584, 5.6136e-003
300.424, 65.97717, 5.6355e-003
301.424, 66.23903, 5.6582e-003
302.424, 66.50169, 5.6801e-003
303.424, 66.76480, 5.7030e-003
304.424, 67.02797, 5.7262e-003
305.424, 67.29139, 5.7477e-003
306.424, 67.55578, 5.7696e-003
307.424, 67.82100, 5.7916e-003
308.424, 68.08604, 5.8136e-003
309.424, 68.35057, 5.8362e-003
310.424, 68.61540, 5.8584e-003
311.424, 68.88064, 5.8800e-003
312.424, 69.14679, 5.9030e-003
313.424, 69.41310, 5.9240e-003
314.424, 69.67985, 5.9474e-003
315.424, 69.94723, 5.9701e-003
316.424, 70.21568, 5.9916e-003
317.424, 70.48465, 6.0144e-003
318.424, 70.75317, 6.0371e-003
319.424, 71.02175, 6.0545e-003
320.424, 71.29037, 6.0766e-003
321.424, 71.55910, 6.0983e-003
322.424, 71.82762, 6.1158e-003
323.424, 72.09637, 6.1246e-003
324.424, 72.36657, 6.1438e-003
325.424, 72.63726, 6.1354e-003
326.424, 72.90803, 6.1559e-003
327.424, 73.17916, 6.1644e-003
328.424, 73.45072, 6.1821e-003
329.424, 73.72296, 6.1868e-003
330.424, 73.99640, 6.2012e-003
331.424, 74.27038, 6.2102e-003
332.424, 74.54359, 6.2274e-003
333.424, 74.81537, 6.2453e-003
334.424, 75.08728, 6.2648e-003
335.424, 75.35994, 6.2888e-003
336.424, 75.63367, 6.3057e-003
337.424, 75.90713, 6.3364e-003
338.424, 76.18070, 6.3507e-003
339.424, 76.45465, 6.3694e-003
340.424, 76.73015, 6.3880e-003
341.424, 77.00471, 6.4089e-003
342.424, 77.27857, 6.4306e-003
343.424, 77.55236, 6.4527e-003
344.424, 77.82801, 6.4740e-003
345.424, 78.10498, 6.4949e-003
346.424, 78.38204, 6.5171e-003
347.424, 78.65881, 6.5401e-003
348.424, 78.93631, 6.5620e-003
349.424, 79.21463, 6.5841e-003
350.424, 79.49274, 6.6065e-003
351.424, 79.77048, 6.6282e-003
352.424, 80.04852, 6.6486e-003
353.424, 80.32682, 6.6707e-003
354.424, 80.60563, 6.6929e-003
355.424, 80.88441, 6.7161e-003
356.424, 81.16336, 6.7375e-003
357.424, 81.44315, 6.7644e-003
358.424, 81.72352, 6.7829e-003
359.424, 82.00377, 6.8052e-003
360.424, 82.28421, 6.8273e-003
361.424, 82.56518, 6.8487e-003
362.424, 82.84661, 6.8721e-003
363.424, 83.12832, 6.8950e-003
364.424, 83.41076, 6.9164e-003
365.424, 83.69437, 6.9398e-003
366.424, 83.97892, 6.9619e-003
367.424, 84.26339, 6.9857e-003
368.424, 84.54791, 7.0075e-003
369.424, 84.83253, 7.0282e-003
370.424, 85.11776, 7.0508e-003
371.424, 85.40323, 7.0734e-003
372.424, 85.68862, 7.0954e-003
373.424, 85.97386, 7.1201e-003
374.424, 86.26010, 7.1418e-003
375.424, 86.54721, 7.1646e-003
376.424, 86.83390, 7.1862e-003
377.424, 87.12029, 7.2088e-003
378.424, 87.40629, 7.2313e-003
379.424, 87.69261, 7.2536e-003
380.424, 87.97939, 7.2751e-003
381.424, 88.26717, 7.2988e-003
382.424, 88.55576, 7.3218e-003
383.424, 88.84482, 7.3435e-003
384.424, 89.13435, 7.3669e-003
385.424, 89.42347, 7.3910e-003
386.424, 89.71201, 7.4127e-003
387.424, 90.00068, 7.4370e-003
388.424, 90.28962, 7.4610e-003
389.424, 90.58068, 7.4836e-003
390.424, 90.87244, 7.5065e-003
391.424, 91.16383, 7.5313e-003
392.424, 91.45547, 7.5530e-003
393.424, 91.74745, 7.5768e-003
394.424, 92.03942, 7.5994e-003
395.424, 92.33185, 7.6226e-003
396.424, 92.62518, 7.6460e-003
397.424, 92.91906, 7.6700e-003
398.424, 93.21297, 7.6925e-003
399.424, 93.50690, 7.7157e-003
400.424, 93.80138, 7.7384e-003
401.424, 94.09555, 7.7638e-003
402.424, 94.38980, 7.7838e-003
403.424, 94.68625, 7.8073e-003
404.424, 94.98277, 7.8302e-003
405.424, 95.27913, 7.8551e-003
406.424, 95.57507, 7.8770e-003
407.424, 95.87124, 7.9001e-003
408.424, 96.16668, 7.9263e-003
409.424, 96.46293, 7.9494e-003
410.424, 96.76047, 7.9743e-003
411.424, 97.05836, 7.9974e-003
412.424, 97.35642, 8.0218e-003
413.424, 97.65491, 8.0467e-003
414.424, 97.95385, 8.0729e-003
415.424, 98.25332, 8.0966e-003
416.424, 98.55358, 8.1198e-003
417.424, 98.85452, 8.1456e-003
418.424, 99.15578, 8.1683e-003
419.424, 99.45758, 8.1924e-003
420.424, 99.75929, 8.2183e-003
421.424,100.061, 8.2448e-003
422.424,100.363, 8.2686e-003
423.424,100.665, 8.2947e-003
424.424,100.966, 8.3182e-003
425.424,101.269, 8.3441e-003
426.424,101.572, 8.3707e-003
427.424,101.875, 8.3945e-003
428.424,102.177, 8.4203e-003
429.424,102.48, 8.4481e-003
430.424,102.783, 8.4715e-003
431.424,103.087, 8.4983e-003
432.424,103.39, 8.5251e-003
433.424,103.695, 8.5492e-003
434.424,104.001, 8.5758e-003
435.424,104.307, 8.6028e-003
436.424,104.612, 8.6283e-003
437.424,104.918, 8.6542e-003
438.424,105.224, 8.6820e-003
439.424,105.531, 8.7100e-003
440.424,105.84, 8.7351e-003
441.424,106.153, 8.7627e-003
442.424,106.466, 8.7916e-003
443.424,106.781, 8.8170e-003
444.424,107.096, 8.8437e-003
445.424,107.41, 8.8706e-003
446.424,107.724, 8.8978e-003
447.424,108.035, 8.9229e-003
448.424,108.343, 8.9481e-003
449.424,108.647, 8.9736e-003
450.424,108.949, 8.9995e-003
451.424,109.249, 9.0249e-003
452.424,109.549, 9.0487e-003
453.424,109.848, 9.0746e-003
454.424,110.147, 9.1009e-003
455.424,110.446, 9.1272e-003
456.424,110.744, 9.1501e-003
457.424,111.045, 9.1767e-003
458.424,111.346, 9.2034e-003
459.424,111.648, 9.2301e-003
460.424,111.951, 9.2541e-003
461.424,112.256, 9.2802e-003
462.424,112.562, 9.3068e-003
463.424,112.869, 9.3339e-003
464.424,113.176, 9.3586e-003
465.424,113.483, 9.3840e-003
466.424,113.791, 9.4110e-003
467.424,114.099, 9.4376e-003
468.424,114.409, 9.4627e-003
469.424,114.72, 9.4889e-003
470.424,115.032, 9.5168e-003
471.424,115.346, 9.5442e-003
472.424,115.661, 9.5721e-003
473.424,115.979, 9.5976e-003
474.424,116.3, 9.6254e-003
475.424,116.623, 9.6533e-003
476.424,116.948, 9.6806e-003
477.424,117.275, 9.7078e-003
478.424,117.6, 9.7325e-003
479.424,117.923, 9.7600e-003
480.424,118.245, 9.7852e-003
481.424,118.564, 9.8111e-003
482.424,118.881, 9.8364e-003
483.424,119.196, 9.8605e-003
484.424,119.508, 9.8852e-003
485.424,119.817, 9.9111e-003
486.424,120.124, 9.9362e-003
487.424,120.431, 9.9626e-003
488.424,120.738, 9.9861e-003
489.424,121.046, 1.0012e-002
490.424,121.357, 1.0038e-002
491.424,121.669, 1.0065e-002
492.424,121.982, 1.0091e-002
493.424,122.296, 1.0117e-002
494.424,122.612, 1.0141e-002
495.424,122.929, 1.0167e-002
496.424,123.248, 1.0194e-002
497.424,123.566, 1.0219e-002
498.424,123.885, 1.0246e-002
499.424,124.204, 1.0273e-002
500.424,124.525, 1.0297e-002
501.424,124.848, 1.0323e-002
502.424,125.173, 1.0349e-002
503.424,125.497, 1.0376e-002
504.424,125.822, 1.0402e-002
505.424,126.148, 1.0428e-002
506.424,126.473, 1.0454e-002
507.424,126.798, 1.0480e-002
508.424,127.125, 1.0506e-002
509.424,127.454, 1.0533e-002
510.424,127.782, 1.0557e-002
511.424,128.113, 1.0583e-002
512.424,128.444, 1.0610e-002
513.424,128.777, 1.0636e-002
514.424,129.108, 1.0661e-002
515.424,129.438, 1.0688e-002
516.424,129.769, 1.0714e-002
517.424,130.101, 1.0740e-002
518.424,130.435, 1.0766e-002
519.424,130.77, 1.0792e-002
520.424,131.103, 1.0816e-002
521.424,131.438, 1.0842e-002
522.424,131.772, 1.0868e-002
523.424,132.105, 1.0894e-002
524.424,132.438, 1.0921e-002
525.424,132.772, 1.0946e-002
526.424,133.109, 1.0973e-002
527.424,133.447, 1.0999e-002
528.424,133.784, 1.1025e-002
529.424,134.123, 1.1051e-002
530.424,134.461, 1.1076e-002
531.424,134.798, 1.1101e-002
532.424,135.136, 1.1128e-002
533.424,135.474, 1.1154e-002
534.424,135.813, 1.1180e-002
535.424,136.151, 1.1206e-002
536.424,136.489, 1.1233e-002
537.424,136.827, 1.1259e-002
538.424,137.166, 1.1285e-002
539.424,137.506, 1.1311e-002
540.424,137.847, 1.1336e-002
541.424,138.189, 1.1360e-002
542.424,138.529, 1.1387e-002
543.424,138.867, 1.1413e-002
544.424,139.208, 1.1439e-002
545.424,139.55, 1.1465e-002
546.424,139.893, 1.1491e-002
547.424,140.236, 1.1518e-002
548.424,140.578, 1.1544e-002
549.424,140.921, 1.1571e-002
550.424,141.264, 1.1596e-002
551.424,141.607, 1.1622e-002
552.424,141.949, 1.1648e-002
553.424,142.291, 1.1672e-002
554.424,142.634, 1.1698e-002
555.424,142.976, 1.1725e-002
556.424,143.319, 1.1750e-002
557.424,143.663, 1.1777e-002
558.424,144.006, 1.1803e-002
559.424,144.351, 1.1830e-002
560.424,144.695, 1.1856e-002
561.424,145.039, 1.1882e-002
562.424,145.384, 1.1908e-002
563.424,145.728, 1.1935e-002
564.424,146.072, 1.1961e-002
565.424,146.419, 1.1986e-002
566.424,146.767, 1.2013e-002
567.424,147.117, 1.2041e-002
568.424,147.469, 1.2068e-002
569.424,147.824, 1.2096e-002
570.424,148.182, 1.2123e-002
571.424,148.539, 1.2150e-002
572.424,148.894, 1.2176e-002
573.424,149.246, 1.2202e-002
574.424,149.595, 1.2229e-002
575.424,149.941, 1.2254e-002
576.424,150.282, 1.2277e-002
577.424,150.621, 1.2303e-002
578.424,150.957, 1.2329e-002
579.424,151.291, 1.2354e-002
580.424,151.626, 1.2380e-002
581.424,151.962, 1.2407e-002
582.424,152.299, 1.2433e-002
583.424,152.638, 1.2459e-002
584.424,152.978, 1.2486e-002
585.424,153.319, 1.2513e-002
586.424,153.661, 1.2539e-002
587.424,154.005, 1.2565e-002
588.424,154.35, 1.2592e-002
589.424,154.694, 1.2618e-002
590.424,155.038, 1.2643e-002
591.424,155.383, 1.2668e-002
592.424,155.728, 1.2695e-002
593.424,156.075, 1.2721e-002
594.424,156.422, 1.2748e-002
595.424,156.772, 1.2774e-002
596.424,157.122, 1.2801e-002
597.424,157.472, 1.2828e-002
598.424,157.822, 1.2854e-002
599.424,158.172, 1.2881e-002
600.424,158.524, 1.2907e-002
601.424,158.878, 1.2934e-002
602.424,159.231, 1.2959e-002
603.424,159.585, 1.2986e-002
604.424,159.94, 1.3012e-002
605.424,160.293, 1.3039e-002
606.424,160.647, 1.3066e-002
607.424,161.001, 1.3092e-002
608.424,161.356, 1.3120e-002
609.424,161.708, 1.3145e-002
610.424,162.064, 1.3173e-002
611.424,162.421, 1.3200e-002
612.424,162.778, 1.3226e-002
613.424,163.136, 1.3253e-002
614.424,163.493, 1.3280e-002
615.424,163.849, 1.3305e-002
616.424,164.205, 1.3332e-002
617.424,164.562, 1.3359e-002
618.424,164.922, 1.3386e-002
619.424,165.281, 1.3413e-002
620.424,165.64, 1.3440e-002
621.424,165.998, 1.3466e-002
622.424,166.354, 1.3493e-002
623.424,166.711, 1.3520e-002
624.424,167.07, 1.3548e-002
625.424,167.428, 1.3574e-002
626.424,167.786, 1.3600e-002
627.424,168.144, 1.3628e-002
628.424,168.504, 1.3655e-002
629.424,168.864, 1.3680e-002
630.424,169.225, 1.3706e-002
631.424,169.585, 1.3733e-002
632.424,169.946, 1.3760e-002
633.424,170.307, 1.3788e-002
634.424,170.668, 1.3815e-002
635.424,171.03, 1.3841e-002
636.424,171.391, 1.3869e-002
637.424,171.754, 1.3896e-002
638.424,172.117, 1.3923e-002
639.424,172.477, 1.3950e-002
640.424,172.837, 1.3977e-002
641.424,173.199, 1.4005e-002
642.424,173.56, 1.4032e-002
643.424,173.92, 1.4059e-002
644.424,174.281, 1.4086e-002
645.424,174.644, 1.4111e-002
646.424,175.006, 1.4138e-002
647.424,175.369, 1.4166e-002
648.424,175.734, 1.4193e-002
649.424,176.099, 1.4220e-002
650.424,176.463, 1.4248e-002
651.424,176.826, 1.4275e-002
652.424,177.191, 1.4302e-002
653.424,177.558, 1.4330e-002
654.424,177.924, 1.4359e-002
655.424,178.292, 1.4386e-002
656.424,178.663, 1.4414e-002
657.424,179.035, 1.4443e-002
658.424,179.408, 1.4471e-002
659.424,179.781, 1.4498e-002
660.424,180.154, 1.4524e-002
661.424,180.529, 1.4551e-002
662.424,180.899, 1.4578e-002
663.424,181.265, 1.4606e-002
664.424,181.629, 1.4632e-002
665.424,181.987, 1.4659e-002
666.424,182.344, 1.4687e-002
667.424,182.703, 1.4712e-002
668.424,183.062, 1.4740e-002
669.424,183.42, 1.4768e-002
670.424,183.778, 1.4794e-002
671.424,184.136, 1.4822e-002
672.424,184.494, 1.4849e-002
673.424,184.852, 1.4876e-002
674.424,185.212, 1.4903e-002
675.424,185.575, 1.4929e-002
676.424,185.941, 1.4956e-002
677.424,186.307, 1.4984e-002
678.424,186.672, 1.5011e-002
679.424,187.039, 1.5038e-002
680.424,187.408, 1.5066e-002
681.424,187.778, 1.5093e-002
682.424,188.149, 1.5120e-002
683.424,188.52, 1.5148e-002
684.424,188.89, 1.5175e-002
685.424,189.263, 1.5204e-002
686.424,189.635, 1.5231e-002
687.424,190.006, 1.5260e-002
688.424,190.38, 1.5287e-002
689.424,190.754, 1.5315e-002
690.424,191.131, 1.5340e-002
691.424,191.508, 1.5367e-002
692.424,191.888, 1.5395e-002
693.424,192.267, 1.5424e-002
694.424,192.648, 1.5451e-002
695.424,193.029, 1.5479e-002
696.424,193.409, 1.5508e-002
697.424,193.79, 1.5535e-002
698.424,194.17, 1.5562e-002
699.424,194.55, 1.5590e-002
700.424,194.929, 1.5618e-002
701.424,195.309, 1.5645e-002
702.424,195.688, 1.5673e-002
703.424,196.067, 1.5701e-002
704.424,196.446, 1.5729e-002
705.424,196.826, 1.5756e-002
706.424,197.206, 1.5782e-002
707.424,197.588, 1.5809e-002
708.424,197.969, 1.5837e-002
709.424,198.348, 1.5864e-002
710.424,198.727, 1.5892e-002
711.424,199.109, 1.5920e-002
712.424,199.49, 1.5949e-002
713.424,199.87, 1.5977e-002
714.424,200.255, 1.6006e-002
715.424,200.642, 1.6035e-002
716.424,201.033, 1.6064e-002
717.424,201.428, 1.6092e-002
718.424,201.821, 1.6120e-002
719.424,202.213, 1.6149e-002
720.424,202.6, 1.6176e-002
721.424,202.983, 1.6204e-002
722.424,203.362, 1.6230e-002
723.424,203.737, 1.6255e-002
724.424,204.108, 1.6281e-002
725.424,204.477, 1.6308e-002
726.424,204.848, 1.6336e-002
727.424,205.218, 1.6363e-002
728.424,205.587, 1.6391e-002
729.424,205.957, 1.6418e-002
730.424,206.33, 1.6446e-002
731.424,206.704, 1.6474e-002
732.424,207.077, 1.6501e-002
733.424,207.451, 1.6529e-002
734.424,207.826, 1.6556e-002
735.424,208.2, 1.6584e-002
736.424,208.575, 1.6612e-002
737.424,208.951, 1.6639e-002
738.424,209.328, 1.6667e-002
739.424,209.706, 1.6695e-002
740.424,210.085, 1.6721e-002
741.424,210.464, 1.6747e-002
742.424,210.844, 1.6776e-002
743.424,211.224, 1.6804e-002
744.424,211.604, 1.6832e-002
745.424,211.987, 1.6859e-002
746.424,212.372, 1.6888e-002
747.424,212.758, 1.6915e-002
748.424,213.145, 1.6944e-002
749.424,213.53, 1.6972e-002
750.424,213.913, 1.7000e-002
751.424,214.296, 1.7027e-002
752.424,214.679, 1.7056e-002
753.424,215.063, 1.7084e-002
754.424,215.447, 1.7112e-002
755.424,215.831, 1.7141e-002
756.424,216.217, 1.7169e-002
757.424,216.604, 1.7197e-002
758.424,216.993, 1.7224e-002
759.424,217.382, 1.7253e-002
760.424,217.77, 1.7278e-002
761.424,218.158, 1.7306e-002
762.424,218.547, 1.7334e-002
763.424,218.937, 1.7363e-002
764.424,219.328, 1.7391e-002
765.424,219.719, 1.7420e-002
766.424,220.111, 1.7448e-002
767.424,220.503, 1.7476e-002
768.424,220.9, 1.7505e-002
769.424,222.051, 1.7571e-002
770.424,222.418, 1.7598e-002
771.424,222.791, 1.7626e-002
772.424,223.169, 1.7653e-002
773.424,223.547, 1.7681e-002
774.424,223.924, 1.7709e-002
775.424,224.303, 1.7737e-002
776.424,224.684, 1.7764e-002
777.424,225.069, 1.7793e-002
778.424,225.46, 1.7822e-002
779.424,225.852, 1.7852e-002
780.424,226.249, 1.7878e-002
781.424,226.655, 1.7907e-002
782.424,227.069, 1.7936e-002
783.424,227.483, 1.7964e-002
784.424,227.891, 1.7992e-002
785.424,228.29, 1.8019e-002
786.424,228.686, 1.8047e-002
787.424,229.08, 1.8075e-002
788.424,229.482, 1.8104e-002
789.424,229.889, 1.8132e-002
790.424,230.294, 1.8160e-002
791.424,230.694, 1.8188e-002
792.424,231.09, 1.8215e-002
793.424,231.481, 1.8243e-002
794.424,231.868, 1.8271e-002
795.424,232.263, 1.8300e-002
796.424,232.666, 1.8330e-002
797.424,233.069, 1.8359e-002
798.424,233.472, 1.8387e-002
799.424,233.877, 1.8415e-002
800.424,234.287, 1.8444e-002
801.424,234.698, 1.8473e-002
802.424,235.117, 1.8501e-002
803.424,235.545, 1.8529e-002
804.424,235.977, 1.8558e-002
805.424,236.409, 1.8588e-002
806.424,236.837, 1.8615e-002
807.424,237.259, 1.8644e-002
808.424,237.676, 1.8673e-002
809.424,238.088, 1.8702e-002
810.424,238.499, 1.8731e-002
811.424,238.91, 1.8761e-002
812.424,239.313, 1.8790e-002
813.424,239.705, 1.8818e-002
814.424,240.093, 1.8845e-002
815.424,240.478, 1.8874e-002
816.424,240.864, 1.8903e-002
817.424,241.253, 1.8932e-002
818.424,241.647, 1.8960e-002
819.424,242.045, 1.8989e-002
820.424,242.442, 1.9017e-002
821.424,242.838, 1.9045e-002
822.424,243.231, 1.9074e-002
823.424,243.622, 1.9102e-002
824.424,244.016, 1.9130e-002
825.424,244.414, 1.9159e-002
826.424,244.8, 1.9184e-002
827.424,245.18, 1.9212e-002
828.424,245.569, 1.9240e-002
829.424,245.964, 1.9268e-002
830.424,246.359, 1.9296e-002
831.424,246.754, 1.9325e-002
832.424,247.14, 1.9353e-002
833.424,247.516, 1.9382e-002
834.424,247.894, 1.9410e-002
835.424,248.404, 1.9446e-002
836.424,248.97, 1.9489e-002
837.424,249.376, 1.9520e-002
838.424,249.733, 1.9547e-002
839.424,250.054, 1.9573e-002
840.424,250.421, 1.9598e-002
841.424,250.746, 1.9621e-002
842.424,251.042, 1.9642e-002
843.424,251.384, 1.9665e-002
844.424,251.759, 1.9690e-002
845.424,252.152, 1.9717e-002
846.424,252.536, 1.9744e-002
847.424,252.896, 1.9771e-002
848.424,253.252, 1.9798e-002
849.424,253.626, 1.9827e-002
850.424,254.013, 1.9855e-002
851.424,254.392, 1.9883e-002