File: data_backup/8.1mm/oligTanz010s2r1-9.5mm.csv
#EXPORTTYPE:           ,DATA ALL
#FILE:                 ,oligTanz010s2r1.ngb-sle
#FORMAT:               ,NETZSCH5
#FTYPE:                ,ANSI
#IDENTITY:             ,sunstone peristerite
#DECIMAL:              ,POINT
#SEPARATOR:            ,COMMA
#MTYPE:                ,DIL
#INSTRUMENT:           ,NETZSCH DIL 402C
#PROJECT:              ,feldspar
#DATE/TIME:            ,8/28/2019 10:01:21 AM (UTC-5)
#CORR. FILE:           ,
#TEMPCAL:              ,TCALZERO.TMX
#LABORATORY:           ,Mineral Physics
#OPERATOR:             ,PAG
#REMARK:               ,bare, norm start, for oligoclase sunstone peristerite perp to lamella, 010 blocky shape
#SAMPLE:               ,oligTanz010sam2
#SAMPLE LENGTH /mm:    ,9.477
#MATERIAL:             ,sapphire stnd
#MEASMODE:             ,Standard Expansion
#PURGE GAS 1:          ,ARGON
#FLOW RATE 1 /(ml/min):,75
#M.RANGE /µm:          ,500
#CORR. CODE:           ,010
#RANGE:                ,20.0°C/3.0(K/min)/1050.0°C
#SEGMENT:              ,S1/1
#SEG. 1:               ,20.0°C/3.0(K/min)/1050.0°C

##Temp./°C,Time/min,dL/Lo,Alpha/(1/K)
  22.38900,  0.00000, 2.1575e-005, 1.8705e-005
  23.38900,  4.77240, 1.0199e-005,-1.7152e-005
  24.38900,  5.24680,-5.3123e-006,-1.3717e-005
  25.38900,  5.59884,-1.9369e-005,-1.1733e-005
  26.38900,  5.89345,-3.0835e-005,-1.0125e-005
  27.38900,  6.15686,-4.0272e-005,-8.7929e-006
  28.38900,  6.40047,-4.8534e-005,-6.6384e-006
  29.38900,  6.63163,-5.5006e-005,-5.9490e-006
  30.38900,  6.85351,-6.0177e-005,-4.5749e-006
  31.38900,  7.06942,-6.3549e-005,-3.6047e-006
  32.38900,  7.28117,-6.6286e-005,-1.7118e-006
  33.38900,  7.49004,-6.7999e-005,-6.4311e-007
  34.38900,  7.69749,-6.8246e-005, 4.9130e-007
  35.38900,  7.90394,-6.7530e-005, 1.2620e-006
  36.38900,  8.11003,-6.6105e-005, 1.6176e-006
  37.38900,  8.31570,-6.3536e-005, 3.2364e-006
  38.38900,  8.52127,-6.0034e-005, 3.3631e-006
  39.38900,  8.72630,-5.6342e-005, 3.6873e-006
  40.38900,  8.93047,-5.1577e-005, 5.1227e-006
  41.38900,  9.13396,-4.6449e-005, 5.3275e-006
  42.38900,  9.33740,-4.0685e-005, 5.5457e-006
  43.38900,  9.54074,-3.4977e-005, 5.8779e-006
  44.38900,  9.74433,-2.9123e-005, 6.1318e-006
  45.38900,  9.94716,-2.3406e-005, 6.1321e-006
  46.38900, 10.14887,-1.6772e-005, 6.4078e-006
  47.38900, 10.34895,-1.0167e-005, 6.6162e-006
  48.38900, 10.54694,-3.3085e-006, 6.7649e-006
  49.38900, 10.74351, 3.6262e-006, 7.1500e-006
  50.38900, 10.93830, 1.0435e-005, 7.2358e-006
  51.38900, 11.13218, 1.7265e-005, 6.9307e-006
  52.38900, 11.32488, 2.4272e-005, 7.3548e-006
  53.38900, 11.51623, 3.1731e-005, 7.3706e-006
  54.38900, 11.70697, 3.9208e-005, 7.5262e-006
  55.38900, 11.89649, 4.7306e-005, 7.9091e-006
  56.38900, 12.08507, 5.5189e-005, 8.3012e-006
  57.38900, 12.27337, 6.3513e-005, 7.6890e-006
  58.38900, 12.46076, 7.1001e-005, 8.5021e-006
  59.38900, 12.64801, 7.9857e-005, 8.6837e-006
  60.38900, 12.83529, 8.8565e-005, 9.0188e-006
  61.38900, 13.02274, 9.7627e-005, 8.9018e-006
  62.38900, 13.20999, 1.0665e-004, 9.5447e-006
  63.38900, 13.39745, 1.1627e-004, 9.3932e-006
  64.38900, 13.58475, 1.2615e-004, 9.8005e-006
  65.38900, 13.77175, 1.3577e-004, 9.9744e-006
  66.38900, 13.95907, 1.4607e-004, 1.0670e-005
  67.38900, 14.14691, 1.5639e-004, 1.0462e-005
  68.38900, 14.33499, 1.6671e-004, 1.0463e-005
  69.38900, 14.52324, 1.7725e-004, 1.0629e-005
  70.38900, 14.71082, 1.8805e-004, 1.0722e-005
  71.38900, 14.89875, 1.9873e-004, 1.1077e-005
  72.38900, 15.08699, 2.0932e-004, 1.0695e-005
  73.38900, 15.27601, 2.2084e-004, 1.1075e-005
  74.38900, 15.46569, 2.3224e-004, 1.1536e-005
  75.38900, 15.65531, 2.4336e-004, 1.1510e-005
  76.38900, 15.84523, 2.5499e-004, 1.1430e-005
  77.38900, 16.03551, 2.6655e-004, 1.1245e-005
  78.38900, 16.22651, 2.7799e-004, 1.1584e-005
  79.38900, 16.41770, 2.8935e-004, 1.2030e-005
  80.38900, 16.60914, 3.0139e-004, 1.1857e-005
  81.38900, 16.80074, 3.1305e-004, 1.1633e-005
  82.38900, 16.99272, 3.2519e-004, 1.2071e-005
  83.38900, 17.18510, 3.3719e-004, 1.1925e-005
  84.38900, 17.37809, 3.4941e-004, 1.2264e-005
  85.38900, 17.57134, 3.6105e-004, 1.2292e-005
  86.38900, 17.76459, 3.7349e-004, 1.1735e-005
  87.38900, 17.95835, 3.8567e-004, 1.2428e-005
  88.38900, 18.15192, 3.9816e-004, 1.2628e-005
  89.38900, 18.34608, 4.1071e-004, 1.2121e-005
  90.38900, 18.54076, 4.2261e-004, 1.2291e-005
  91.38900, 18.73600, 4.3524e-004, 1.2138e-005
  92.38900, 18.93154, 4.4769e-004, 1.2909e-005
  93.38900, 19.12796, 4.6041e-004, 1.2308e-005
  94.38900, 19.32445, 4.7309e-004, 1.2584e-005
  95.38900, 19.52197, 4.8561e-004, 1.2620e-005
  96.38900, 19.71967, 4.9825e-004, 1.2825e-005
  97.38900, 19.91761, 5.1114e-004, 1.3123e-005
  98.38900, 20.11590, 5.2384e-004, 1.2694e-005
  99.38900, 20.31460, 5.3674e-004, 1.2727e-005
 100.389, 20.51334, 5.4958e-004, 1.2970e-005
 101.389, 20.71207, 5.6241e-004, 1.2657e-005
 102.389, 20.91110, 5.7532e-004, 1.3082e-005
 103.389, 21.11014, 5.8850e-004, 1.3177e-005
 104.389, 21.31010, 6.0124e-004, 1.2603e-005
 105.389, 21.51083, 6.1449e-004, 1.3014e-005
 106.389, 21.71319, 6.2756e-004, 1.2983e-005
 107.389, 21.91645, 6.4039e-004, 1.2723e-005
 108.389, 22.12030, 6.5355e-004, 1.3159e-005
 109.389, 22.32380, 6.6664e-004, 1.3433e-005
 110.389, 22.52695, 6.7955e-004, 1.3089e-005
 111.389, 22.72961, 6.9291e-004, 1.3258e-005
 112.389, 22.93261, 7.0595e-004, 1.3175e-005
 113.389, 23.13573, 7.1877e-004, 1.3429e-005
 114.389, 23.33952, 7.3235e-004, 1.3114e-005
 115.389, 23.54332, 7.4574e-004, 1.3558e-005
 116.389, 23.74768, 7.5887e-004, 1.3614e-005
 117.389, 23.95222, 7.7192e-004, 1.3333e-005
 118.389, 24.15734, 7.8560e-004, 1.3343e-005
 119.389, 24.36245, 7.9898e-004, 1.3474e-005
 120.389, 24.56764, 8.1235e-004, 1.3314e-005
 121.389, 24.77285, 8.2561e-004, 1.3248e-005
 122.389, 24.97830, 8.3859e-004, 1.3260e-005
 123.389, 25.18435, 8.5194e-004, 1.3026e-005
 124.389, 25.39070, 8.6546e-004, 1.3189e-005
 125.389, 25.59750, 8.7877e-004, 1.3356e-005
 126.389, 25.80449, 8.9224e-004, 1.3493e-005
 127.389, 26.01174, 9.0554e-004, 1.3991e-005
 128.389, 26.21936, 9.1931e-004, 1.3545e-005
 129.389, 26.42770, 9.3268e-004, 1.3132e-005
 130.389, 26.63612, 9.4597e-004, 1.3191e-005
 131.389, 26.84475, 9.5917e-004, 1.3441e-005
 132.389, 27.05294, 9.7340e-004, 1.3598e-005
 133.389, 27.26111, 9.8681e-004, 1.3432e-005
 134.389, 27.46961, 1.0005e-003, 1.3701e-005
 135.389, 27.67837, 1.0140e-003, 1.4120e-005
 136.389, 27.88807, 1.0276e-003, 1.3515e-005
 137.389, 28.09821, 1.0410e-003, 1.3710e-005
 138.389, 28.30903, 1.0547e-003, 1.3391e-005
 139.389, 28.52016, 1.0686e-003, 1.3676e-005
 140.389, 28.73127, 1.0819e-003, 1.3821e-005
 141.389, 28.94229, 1.0958e-003, 1.3890e-005
 142.389, 29.15372, 1.1094e-003, 1.3477e-005
 143.389, 29.36554, 1.1234e-003, 1.3956e-005
 144.389, 29.57787, 1.1375e-003, 1.3723e-005
 145.389, 29.79014, 1.1507e-003, 1.3684e-005
 146.389, 30.00242, 1.1643e-003, 1.3607e-005
 147.389, 30.21537, 1.1779e-003, 1.3673e-005
 148.389, 30.42839, 1.1918e-003, 1.3643e-005
 149.389, 30.64212, 1.2053e-003, 1.3574e-005
 150.389, 30.85523, 1.2192e-003, 1.4252e-005
 151.389, 31.06853, 1.2333e-003, 1.3738e-005
 152.389, 31.28195, 1.2466e-003, 1.3612e-005
 153.389, 31.49562, 1.2603e-003, 1.3867e-005
 154.389, 31.70950, 1.2741e-003, 1.3476e-005
 155.389, 31.92425, 1.2878e-003, 1.3936e-005
 156.389, 32.13945, 1.3015e-003, 1.3156e-005
 157.389, 32.35485, 1.3150e-003, 1.3723e-005
 158.389, 32.57021, 1.3292e-003, 1.3708e-005
 159.389, 32.78546, 1.3429e-003, 1.3665e-005
 160.389, 33.00069, 1.3567e-003, 1.3619e-005
 161.389, 33.21575, 1.3705e-003, 1.4383e-005
 162.389, 33.43120, 1.3842e-003, 1.3519e-005
 163.389, 33.64694, 1.3981e-003, 1.3653e-005
 164.389, 33.86317, 1.4114e-003, 1.4044e-005
 165.389, 34.08036, 1.4254e-003, 1.3549e-005
 166.389, 34.29784, 1.4392e-003, 1.3813e-005
 167.389, 34.51571, 1.4531e-003, 1.3999e-005
 168.389, 34.73370, 1.4675e-003, 1.3513e-005
 169.389, 34.95146, 1.4808e-003, 1.4007e-005
 170.389, 35.16951, 1.4946e-003, 1.3271e-005
 171.389, 35.38796, 1.5079e-003, 1.3857e-005
 172.389, 35.60677, 1.5219e-003, 1.3944e-005
 173.389, 35.82584, 1.5382e-003, 1.6332e-005
 174.389, 36.04502, 1.5520e-003, 1.3641e-005
 175.389, 36.26495, 1.5658e-003, 1.4114e-005
 176.389, 36.48537, 1.5803e-003, 1.4027e-005
 177.389, 36.70586, 1.5937e-003, 1.3918e-005
 178.389, 36.92637, 1.6081e-003, 1.3838e-005
 179.389, 37.14684, 1.6214e-003, 1.4003e-005
 180.389, 37.36765, 1.6354e-003, 1.8637e-005
 181.389, 37.58867, 1.6524e-003, 1.3857e-005
 182.389, 37.80970, 1.6667e-003, 1.4387e-005
 183.389, 38.03089, 1.6805e-003, 1.3752e-005
 184.389, 38.25280, 1.6944e-003, 1.4225e-005
 185.389, 38.47526, 1.7086e-003, 1.3842e-005
 186.389, 38.69823, 1.7220e-003, 1.3974e-005
 187.389, 38.92103, 1.7366e-003, 1.3860e-005
 188.389, 39.14379, 1.7504e-003, 1.3907e-005
 189.389, 39.36656, 1.7642e-003, 1.9361e-005
 190.389, 39.59008, 1.7815e-003, 1.3772e-005
 191.389, 39.81393, 1.7955e-003, 1.4065e-005
 192.389, 40.03826, 1.8096e-003, 1.3635e-005
 193.389, 40.26295, 1.8236e-003, 1.3587e-005
 194.389, 40.48847, 1.8373e-003, 1.3841e-005
 195.389, 40.71357, 1.8514e-003, 1.4048e-005
 196.389, 40.93832, 1.8658e-003, 1.3859e-005
 197.389, 41.16269, 1.8795e-003, 1.3682e-005
 198.389, 41.38788, 1.8937e-003, 1.4109e-005
 199.389, 41.61393, 1.9074e-003, 1.3780e-005
 200.389, 41.84011, 1.9214e-003, 1.4397e-005
 201.389, 42.06664, 1.9395e-003, 1.8151e-005
 202.389, 42.29348, 1.9546e-003, 1.3736e-005
 203.389, 42.52074, 1.9684e-003, 1.3937e-005
 204.389, 42.74837, 1.9825e-003, 1.3961e-005
 205.389, 42.97601, 1.9984e-003, 1.6622e-005
 206.389, 43.20364, 2.0119e-003, 1.4476e-005
 207.389, 43.43209, 2.0263e-003, 1.4074e-005
 208.389, 43.66095, 2.0402e-003, 1.3884e-005
 209.389, 43.88982, 2.0542e-003, 1.4061e-005
 210.389, 44.11840, 2.0678e-003, 1.4105e-005
 211.389, 44.34712, 2.0836e-003, 1.7394e-005
 212.389, 44.57659, 2.0980e-003, 1.4196e-005
 213.389, 44.80679, 2.1116e-003, 1.4385e-005
 214.389, 45.03751, 2.1267e-003, 1.4101e-005
 215.389, 45.26825, 2.1409e-003, 1.4053e-005
 216.389, 45.49933, 2.1548e-003, 1.3975e-005
 217.389, 45.73077, 2.1698e-003, 1.7462e-005
 218.389, 45.96256, 2.1844e-003, 1.4182e-005
 219.389, 46.19424, 2.1982e-003, 1.4054e-005
 220.389, 46.42598, 2.2123e-003, 1.3531e-005
 221.389, 46.65806, 2.2263e-003, 1.4097e-005
 222.389, 46.89058, 2.2425e-003, 1.7764e-005
 223.389, 47.12359, 2.2559e-003, 1.3573e-005
 224.389, 47.35681, 2.2704e-003, 1.4287e-005
 225.389, 47.59019, 2.2842e-003, 1.4094e-005
 226.389, 47.82413, 2.2978e-003, 1.3816e-005
 227.389, 48.05761, 2.3121e-003, 1.4290e-005
 228.389, 48.29158, 2.3261e-003, 1.8389e-005
 229.389, 48.52579, 2.3428e-003, 1.3895e-005
 230.389, 48.76101, 2.3566e-003, 1.4375e-005
 231.389, 48.99634, 2.3707e-003, 1.3872e-005
 232.389, 49.23172, 2.3846e-003, 1.4277e-005
 233.389, 49.46757, 2.3987e-003, 1.3916e-005
 234.389, 49.70445, 2.4142e-003, 1.3985e-005
 235.389, 49.94162, 2.4302e-003, 1.4603e-005
 236.389, 50.17904, 2.4441e-003, 1.3740e-005
 237.389, 50.41576, 2.4580e-003, 1.3992e-005
 238.389, 50.65259, 2.4724e-003, 1.4459e-005
 239.389, 50.88952, 2.4864e-003, 1.4007e-005
 240.389, 51.12751, 2.5005e-003, 1.4225e-005
 241.389, 51.36550, 2.5167e-003, 1.4710e-005
 242.389, 51.60364, 2.5304e-003, 1.4192e-005
 243.389, 51.84217, 2.5447e-003, 1.4265e-005
 244.389, 52.08129, 2.5586e-003, 1.4242e-005
 245.389, 52.32096, 2.5726e-003, 1.4303e-005
 246.389, 52.56001, 2.5872e-003, 1.7309e-005
 247.389, 52.79892, 2.6027e-003, 1.4117e-005
 248.389, 53.03828, 2.6168e-003, 1.3464e-005
 249.389, 53.27851, 2.6305e-003, 1.3674e-005
 250.389, 53.52010, 2.6462e-003, 1.4780e-005
 251.389, 53.76181, 2.6601e-003, 1.3881e-005
 252.389, 54.00386, 2.6739e-003, 1.3876e-005
 253.389, 54.24551, 2.6882e-003, 1.4045e-005
 254.389, 54.48764, 2.7023e-003, 1.6825e-005
 255.389, 54.72931, 2.7178e-003, 1.4177e-005
 256.389, 54.97126, 2.7318e-003, 1.3307e-005
 257.389, 55.21313, 2.7458e-003, 1.5031e-005
 258.389, 55.45611, 2.7623e-003, 1.4144e-005
 259.389, 55.69991, 2.7759e-003, 1.4213e-005
 260.389, 55.94437, 2.7899e-003, 1.3890e-005
 261.389, 56.18886, 2.8039e-003, 1.3705e-005
 262.389, 56.43328, 2.8185e-003, 1.5691e-005
 263.389, 56.67768, 2.8343e-003, 1.4145e-005
 264.389, 56.92287, 2.8487e-003, 1.3797e-005
 265.389, 57.16861, 2.8626e-003, 1.4772e-005
 266.389, 57.41485, 2.8770e-003, 1.5927e-005
 267.389, 57.66157, 2.8919e-003, 1.3982e-005
 268.389, 57.90822, 2.9058e-003, 1.4160e-005
 269.389, 58.15508, 2.9210e-003, 1.6699e-005
 270.389, 58.40227, 2.9351e-003, 1.3844e-005
 271.389, 58.64989, 2.9495e-003, 1.3582e-005
 272.389, 58.89776, 2.9631e-003, 1.3967e-005
 273.389, 59.14557, 2.9777e-003, 1.3641e-005
 274.389, 59.39379, 2.9915e-003, 1.7059e-005
 275.389, 59.64223, 3.0071e-003, 1.2882e-005
 276.389, 59.89089, 3.0211e-003, 1.4216e-005
 277.389, 60.13995, 3.0353e-003, 1.4209e-005
 278.389, 60.38902, 3.0503e-003, 1.8548e-005
 279.389, 60.63860, 3.0652e-003, 1.4455e-005
 280.389, 60.88814, 3.0793e-003, 1.4357e-005
 281.389, 61.13828, 3.0950e-003, 1.4162e-005
 282.389, 61.38941, 3.1088e-003, 1.3681e-005
 283.389, 61.64106, 3.1231e-003, 1.4168e-005
 284.389, 61.89269, 3.1381e-003, 1.3873e-005
 285.389, 62.14446, 3.1523e-003, 1.4532e-005
 286.389, 62.39721, 3.1671e-003, 1.3874e-005
 287.389, 62.65072, 3.1814e-003, 1.4158e-005
 288.389, 62.90424, 3.1956e-003, 1.4072e-005
 289.389, 63.15810, 3.2105e-003, 1.3314e-005
 290.389, 63.41175, 3.2254e-003, 1.4631e-005
 291.389, 63.66530, 3.2393e-003, 1.4085e-005
 292.389, 63.91892, 3.2536e-003, 1.4399e-005
 293.389, 64.17270, 3.2685e-003, 1.4808e-005
 294.389, 64.42685, 3.2823e-003, 1.4139e-005
 295.389, 64.68135, 3.2964e-003, 1.3395e-005
 296.389, 64.93685, 3.3112e-003, 1.6264e-005
 297.389, 65.19349, 3.3262e-003, 1.4350e-005
 298.389, 65.45041, 3.3403e-003, 1.4348e-005
 299.389, 65.70748, 3.3543e-003, 1.5903e-005
 300.389, 65.96430, 3.3696e-003, 1.3440e-005
 301.389, 66.22277, 3.3842e-003, 1.4741e-005
 302.389, 66.48172, 3.3983e-003, 1.4414e-005
 303.389, 66.74073, 3.4125e-003, 1.4225e-005
 304.389, 66.99879, 3.4281e-003, 1.4088e-005
 305.389, 67.25703, 3.4421e-003, 1.4081e-005
 306.389, 67.51551, 3.4554e-003, 1.4847e-005
 307.389, 67.77482, 3.4720e-003, 1.4073e-005
 308.389, 68.03464, 3.4856e-003, 1.4261e-005
 309.389, 68.29506, 3.4995e-003, 1.4055e-005
 310.389, 68.55534, 3.5146e-003, 1.4093e-005
 311.389, 68.81627, 3.5282e-003, 1.3178e-005
 312.389, 69.07779, 3.5424e-003, 1.3699e-005
 313.389, 69.33983, 3.5571e-003, 1.3716e-005
 314.389, 69.60128, 3.5711e-003, 1.4522e-005
 315.389, 69.86328, 3.5863e-003, 1.3701e-005
 316.389, 70.12562, 3.6012e-003, 1.5610e-005
 317.389, 70.38818, 3.6149e-003, 1.3865e-005
 318.389, 70.65055, 3.6294e-003, 1.5439e-005
 319.389, 70.91326, 3.6438e-003, 1.4134e-005
 320.389, 71.17715, 3.6584e-003, 1.4129e-005
 321.389, 71.44148, 3.6723e-003, 1.3638e-005
 322.389, 71.70575, 3.6867e-003, 1.4147e-005
 323.389, 71.97050, 3.7007e-003, 1.4222e-005
 324.389, 72.23555, 3.7146e-003, 1.5241e-005
 325.389, 72.50097, 3.7303e-003, 1.4565e-005
 326.389, 72.76659, 3.7443e-003, 1.3965e-005
 327.389, 73.03256, 3.7582e-003, 1.3902e-005
 328.389, 73.29824, 3.7739e-003, 1.5086e-005
 329.389, 73.56381, 3.7879e-003, 1.4147e-005
 330.389, 73.82999, 3.8019e-003, 1.4052e-005
 331.389, 74.09718, 3.8169e-003, 1.3820e-005
 332.389, 74.36542, 3.8310e-003, 1.4537e-005
 333.389, 74.63392, 3.8457e-003, 1.5633e-005
 334.389, 74.90313, 3.8599e-003, 1.3905e-005
 335.389, 75.17295, 3.8738e-003, 1.4028e-005
 336.389, 75.44363, 3.8882e-003, 1.4256e-005
 337.389, 75.71419, 3.9026e-003, 1.5349e-005
 338.389, 75.98444, 3.9174e-003, 1.5156e-005
 339.389, 76.25411, 3.9318e-003, 1.4551e-005
 340.389, 76.52429, 3.9459e-003, 1.4096e-005
 341.389, 76.79537, 3.9606e-003, 1.4464e-005
 342.389, 77.06697, 3.9751e-003, 1.4341e-005
 343.389, 77.33902, 3.9895e-003, 1.4806e-005
 344.389, 77.61163, 4.0045e-003, 1.4819e-005
 345.389, 77.88535, 4.0197e-003, 1.4576e-005
 346.389, 78.15962, 4.0351e-003, 1.5195e-005
 347.389, 78.43467, 4.0502e-003, 1.6587e-005
 348.389, 78.71120, 4.0655e-003, 1.4844e-005
 349.389, 78.98901, 4.0809e-003, 1.4885e-005
 350.389, 79.26731, 4.0964e-003, 1.5106e-005
 351.389, 79.54599, 4.1115e-003, 1.5020e-005
 352.389, 79.82468, 4.1264e-003, 1.4663e-005
 353.389, 80.10307, 4.1410e-003, 1.4930e-005
 354.389, 80.38096, 4.1550e-003, 1.3344e-005
 355.389, 80.65686, 4.1691e-003, 1.4029e-005
 356.389, 80.93100, 4.1831e-003, 1.3373e-005
 357.389, 81.20313, 4.1960e-003, 1.3416e-005
 358.389, 81.47439, 4.2095e-003, 1.3005e-005
 359.389, 81.74323, 4.2225e-003, 1.3648e-005
 360.389, 82.00985, 4.2360e-003, 1.3227e-005
 361.389, 82.27487, 4.2490e-003, 1.2898e-005
 362.389, 82.53910, 4.2623e-003, 1.3258e-005
 363.389, 82.80317, 4.2752e-003, 1.3088e-005
 364.389, 83.06726, 4.2884e-003, 1.3668e-005
 365.389, 83.33105, 4.3021e-003, 1.3300e-005
 366.389, 83.59549, 4.3159e-003, 1.4132e-005
 367.389, 83.86078, 4.3295e-003, 1.3533e-005
 368.389, 84.12679, 4.3432e-003, 1.3837e-005
 369.389, 84.39333, 4.3569e-003, 1.3779e-005
 370.389, 84.66129, 4.3711e-003, 1.4285e-005
 371.389, 84.93030, 4.3855e-003, 1.3782e-005
 372.389, 85.20082, 4.3998e-003, 1.4411e-005
 373.389, 85.47266, 4.4141e-003, 1.4740e-005
 374.389, 85.74592, 4.4282e-003, 1.4015e-005
 375.389, 86.02000, 4.4423e-003, 1.4682e-005
 376.389, 86.29484, 4.4564e-003, 1.4011e-005
 377.389, 86.56992, 4.4707e-003, 1.4289e-005
 378.389, 86.84613, 4.4848e-003, 1.4237e-005
 379.389, 87.12300, 4.4989e-003, 1.4181e-005
 380.389, 87.40071, 4.5131e-003, 1.4458e-005
 381.389, 87.67915, 4.5275e-003, 1.4071e-005
 382.389, 87.95866, 4.5417e-003, 1.4221e-005
 383.389, 88.23805, 4.5558e-003, 1.4094e-005
 384.389, 88.51839, 4.5705e-003, 1.4453e-005
 385.389, 88.79981, 4.5848e-003, 1.4248e-005
 386.389, 89.08227, 4.5989e-003, 1.3998e-005
 387.389, 89.36542, 4.6131e-003, 1.4491e-005
 388.389, 89.64909, 4.6273e-003, 1.4091e-005
 389.389, 89.93378, 4.6422e-003, 1.4143e-005
 390.389, 90.21956, 4.6564e-003, 1.4371e-005
 391.389, 90.50496, 4.6705e-003, 1.4626e-005
 392.389, 90.79128, 4.6848e-003, 1.3756e-005
 393.389, 91.07821, 4.6989e-003, 1.3683e-005
 394.389, 91.36579, 4.7132e-003, 1.4231e-005
 395.389, 91.65395, 4.7279e-003, 1.4205e-005
 396.389, 91.94247, 4.7420e-003, 1.4438e-005
 397.389, 92.23141, 4.7566e-003, 1.4748e-005
 398.389, 92.52196, 4.7705e-003, 1.4431e-005
 399.389, 92.81237, 4.7851e-003, 1.4317e-005
 400.389, 93.10320, 4.7993e-003, 1.4152e-005
 401.389, 93.39390, 4.8137e-003, 1.4022e-005
 402.389, 93.68555, 4.8273e-003, 1.3522e-005
 403.389, 93.97720, 4.8418e-003, 1.4498e-005
 404.389, 94.26888, 4.8560e-003, 1.4205e-005
 405.389, 94.56055, 4.8704e-003, 1.4544e-005
 406.389, 94.85302, 4.8841e-003, 1.4699e-005
 407.389, 95.14620, 4.8985e-003, 1.3233e-005
 408.389, 95.43981, 4.9130e-003, 1.4505e-005
 409.389, 95.73375, 4.9266e-003, 1.3770e-005
 410.389, 96.02773, 4.9408e-003, 1.4340e-005
 411.389, 96.32227, 4.9553e-003, 1.3863e-005
 412.389, 96.61700, 4.9692e-003, 1.3645e-005
 413.389, 96.91242, 4.9833e-003, 1.4331e-005
 414.389, 97.20821, 4.9978e-003, 1.3942e-005
 415.389, 97.50447, 5.0121e-003, 1.4766e-005
 416.389, 97.80108, 5.0265e-003, 1.4374e-005
 417.389, 98.09760, 5.0405e-003, 1.4798e-005
 418.389, 98.39395, 5.0547e-003, 1.4250e-005
 419.389, 98.69040, 5.0692e-003, 1.3490e-005
 420.389, 98.98759, 5.0832e-003, 1.3863e-005
 421.389, 99.28606, 5.0971e-003, 1.4909e-005
 422.389, 99.58488, 5.1112e-003, 1.4058e-005
 423.389, 99.88321, 5.1252e-003, 1.4121e-005
 424.389,100.182, 5.1391e-003, 1.4346e-005
 425.389,100.48, 5.1538e-003, 1.4359e-005
 426.389,100.779, 5.1675e-003, 1.4164e-005
 427.389,101.079, 5.1815e-003, 1.3995e-005
 428.389,101.38, 5.1955e-003, 1.3964e-005
 429.389,101.681, 5.2096e-003, 1.4035e-005
 430.389,101.983, 5.2240e-003, 1.4399e-005
 431.389,102.283, 5.2383e-003, 1.4364e-005
 432.389,102.583, 5.2524e-003, 1.3996e-005
 433.389,102.884, 5.2666e-003, 1.3894e-005
 434.389,103.186, 5.2806e-003, 1.3457e-005
 435.389,103.488, 5.2948e-003, 1.3402e-005
 436.389,103.79, 5.3087e-003, 1.4065e-005
 437.389,104.092, 5.3230e-003, 1.4413e-005
 438.389,104.395, 5.3367e-003, 1.3829e-005
 439.389,104.698, 5.3507e-003, 1.3552e-005
 440.389,105.001, 5.3650e-003, 1.4483e-005
 441.389,105.306, 5.3790e-003, 1.3892e-005
 442.389,105.611, 5.3935e-003, 1.4111e-005
 443.389,105.916, 5.4076e-003, 1.4666e-005
 444.389,106.222, 5.4216e-003, 1.4739e-005
 445.389,106.527, 5.4356e-003, 1.3234e-005
 446.389,106.833, 5.4497e-003, 1.4508e-005
 447.389,107.139, 5.4639e-003, 1.3497e-005
 448.389,107.444, 5.4780e-003, 1.4046e-005
 449.389,107.75, 5.4918e-003, 1.3953e-005
 450.389,108.055, 5.5063e-003, 1.4157e-005
 451.389,108.362, 5.5204e-003, 1.3896e-005
 452.389,108.67, 5.5340e-003, 1.3665e-005
 453.389,108.977, 5.5482e-003, 1.3927e-005
 454.389,109.283, 5.5622e-003, 1.3550e-005
 455.389,109.591, 5.5761e-003, 1.3817e-005
 456.389,109.898, 5.5902e-003, 1.3796e-005
 457.389,110.206, 5.6046e-003, 1.4069e-005
 458.389,110.513, 5.6188e-003, 1.3740e-005
 459.389,110.822, 5.6330e-003, 1.3928e-005
 460.389,111.132, 5.6475e-003, 1.4238e-005
 461.389,111.441, 5.6612e-003, 1.3974e-005
 462.389,111.751, 5.6756e-003, 1.4351e-005
 463.389,112.062, 5.6896e-003, 1.3825e-005
 464.389,112.373, 5.7038e-003, 1.4060e-005
 465.389,112.685, 5.7180e-003, 1.3210e-005
 466.389,112.997, 5.7322e-003, 1.4882e-005
 467.389,113.308, 5.7465e-003, 1.4308e-005
 468.389,113.62, 5.7602e-003, 1.4267e-005
 469.389,113.931, 5.7746e-003, 1.4196e-005
 470.389,114.242, 5.7886e-003, 1.4878e-005
 471.389,114.556, 5.8029e-003, 1.3519e-005
 472.389,114.87, 5.8168e-003, 1.4138e-005
 473.389,115.184, 5.8313e-003, 1.3830e-005
 474.389,115.498, 5.8456e-003, 1.4669e-005
 475.389,115.812, 5.8597e-003, 1.4480e-005
 476.389,116.126, 5.8739e-003, 1.3788e-005
 477.389,116.441, 5.8880e-003, 1.4404e-005
 478.389,116.757, 5.9023e-003, 1.4046e-005
 479.389,117.073, 5.9158e-003, 1.3829e-005
 480.389,117.389, 5.9302e-003, 1.4663e-005
 481.389,117.705, 5.9448e-003, 1.4451e-005
 482.389,118.021, 5.9585e-003, 1.4663e-005
 483.389,118.338, 5.9730e-003, 1.4251e-005
 484.389,118.654, 5.9869e-003, 1.4208e-005
 485.389,118.97, 6.0010e-003, 1.4133e-005
 486.389,119.287, 6.0150e-003, 1.4082e-005
 487.389,119.604, 6.0290e-003, 1.4109e-005
 488.389,119.922, 6.0432e-003, 1.4071e-005
 489.389,120.24, 6.0574e-003, 1.5145e-005
 490.389,120.559, 6.0717e-003, 1.3583e-005
 491.389,120.879, 6.0858e-003, 1.4142e-005
 492.389,121.199, 6.1004e-003, 1.4514e-005
 493.389,121.518, 6.1142e-003, 1.3648e-005
 494.389,121.838, 6.1279e-003, 1.3215e-005
 495.389,122.156, 6.1423e-003, 1.4967e-005
 496.389,122.476, 6.1570e-003, 1.4633e-005
 497.389,122.797, 6.1705e-003, 1.4004e-005
 498.389,123.118, 6.1848e-003, 1.3418e-005
 499.389,123.439, 6.1986e-003, 1.4378e-005
 500.389,123.76, 6.2132e-003, 1.4853e-005
 501.389,124.081, 6.2274e-003, 1.4476e-005
 502.389,124.402, 6.2419e-003, 1.4134e-005
 503.389,124.726, 6.2560e-003, 1.4824e-005
 504.389,125.05, 6.2709e-003, 1.6071e-005
 505.389,125.377, 6.2862e-003, 1.5815e-005
 506.389,125.704, 6.3015e-003, 1.5300e-005
 507.389,126.032, 6.3166e-003, 1.4843e-005
 508.389,126.361, 6.3316e-003, 1.5087e-005
 509.389,126.691, 6.3470e-003, 1.4918e-005
 510.389,127.022, 6.3615e-003, 1.3639e-005
 511.389,127.352, 6.3755e-003, 1.4533e-005
 512.389,127.677, 6.3894e-003, 1.5080e-005
 513.389,128, 6.4034e-003, 1.3970e-005
 514.389,128.32, 6.4162e-003, 1.3201e-005
 515.389,128.637, 6.4295e-003, 1.3399e-005
 516.389,128.953, 6.4426e-003, 1.3341e-005
 517.389,129.267, 6.4556e-003, 1.3536e-005
 518.389,129.578, 6.4688e-003, 1.2536e-005
 519.389,129.889, 6.4825e-003, 1.3254e-005
 520.389,130.199, 6.4964e-003, 1.3984e-005
 521.389,130.51, 6.5101e-003, 1.4180e-005
 522.389,130.824, 6.5240e-003, 1.4030e-005
 523.389,131.139, 6.5383e-003, 1.3870e-005
 524.389,131.456, 6.5524e-003, 1.4043e-005
 525.389,131.774, 6.5665e-003, 1.4079e-005
 526.389,132.093, 6.5806e-003, 1.4885e-005
 527.389,132.413, 6.5953e-003, 1.3999e-005
 528.389,132.734, 6.6092e-003, 1.4113e-005
 529.389,133.056, 6.6238e-003, 1.3520e-005
 530.389,133.379, 6.6382e-003, 1.4818e-005
 531.389,133.702, 6.6523e-003, 1.3708e-005
 532.389,134.027, 6.6661e-003, 1.4758e-005
 533.389,134.352, 6.6810e-003, 1.4075e-005
 534.389,134.678, 6.6954e-003, 1.4653e-005
 535.389,135.005, 6.7099e-003, 1.4391e-005
 536.389,135.332, 6.7237e-003, 1.3428e-005
 537.389,135.662, 6.7380e-003, 1.3735e-005
 538.389,135.994, 6.7520e-003, 1.5236e-005
 539.389,136.326, 6.7672e-003, 1.4658e-005
 540.389,136.657, 6.7810e-003, 1.3867e-005
 541.389,136.988, 6.7957e-003, 1.3335e-005
 542.389,137.32, 6.8098e-003, 1.3852e-005
 543.389,137.652, 6.8240e-003, 1.5381e-005
 544.389,137.984, 6.8389e-003, 1.5348e-005
 545.389,138.317, 6.8530e-003, 1.4213e-005
 546.389,138.651, 6.8676e-003, 1.3797e-005
 547.389,138.985, 6.8818e-003, 1.4371e-005
 548.389,139.32, 6.8965e-003, 1.4783e-005
 549.389,139.656, 6.9112e-003, 1.4339e-005
 550.389,139.992, 6.9253e-003, 1.3775e-005
 551.389,140.329, 6.9395e-003, 1.4236e-005
 552.389,140.666, 6.9539e-003, 1.4371e-005
 553.389,141.002, 6.9683e-003, 1.3501e-005
 554.389,141.338, 6.9825e-003, 1.3586e-005
 555.389,141.673, 6.9969e-003, 1.4169e-005
 556.389,142.009, 7.0115e-003, 1.4598e-005
 557.389,142.345, 7.0262e-003, 1.5363e-005
 558.389,142.683, 7.0414e-003, 1.6211e-005
 559.389,143.022, 7.0564e-003, 1.5407e-005
 560.389,143.363, 7.0715e-003, 1.6368e-005
 561.389,143.707, 7.0872e-003, 1.5317e-005
 562.389,144.053, 7.1029e-003, 1.5193e-005
 563.389,144.401, 7.1186e-003, 1.5467e-005
 564.389,144.751, 7.1342e-003, 1.5607e-005
 565.389,145.1, 7.1488e-003, 1.4612e-005
 566.389,145.447, 7.1631e-003, 1.4480e-005
 567.389,145.791, 7.1782e-003, 1.3558e-005
 568.389,146.132, 7.1912e-003, 1.2997e-005
 569.389,146.469, 7.2048e-003, 1.3423e-005
 570.389,146.802, 7.2187e-003, 1.3009e-005
 571.389,147.133, 7.2321e-003, 1.4303e-005
 572.389,147.462, 7.2455e-003, 1.3685e-005
 573.389,147.789, 7.2590e-003, 1.4350e-005
 574.389,148.113, 7.2727e-003, 1.3781e-005
 575.389,148.439, 7.2873e-003, 1.4313e-005
 576.389,148.767, 7.3014e-003, 1.4740e-005
 577.389,149.096, 7.3157e-003, 1.4569e-005
 578.389,149.427, 7.3302e-003, 1.4197e-005
 579.389,149.759, 7.3446e-003, 1.6220e-005
 580.389,150.092, 7.3588e-003, 1.5301e-005
 581.389,150.427, 7.3735e-003, 1.5043e-005
 582.389,150.762, 7.3879e-003, 1.4341e-005
 583.389,151.1, 7.4024e-003, 1.5076e-005
 584.389,151.438, 7.4166e-003, 1.4325e-005
 585.389,151.777, 7.4311e-003, 1.3960e-005
 586.389,152.117, 7.4453e-003, 1.4701e-005
 587.389,152.457, 7.4602e-003, 1.4005e-005
 588.389,152.798, 7.4748e-003, 1.4677e-005
 589.389,153.138, 7.4896e-003, 1.4069e-005
 590.389,153.479, 7.5039e-003, 1.4700e-005
 591.389,153.821, 7.5188e-003, 1.4472e-005
 592.389,154.164, 7.5331e-003, 1.5242e-005
 593.389,154.507, 7.5483e-003, 1.5584e-005
 594.389,154.852, 7.5628e-003, 1.4872e-005
 595.389,155.198, 7.5774e-003, 1.3950e-005
 596.389,155.545, 7.5923e-003, 1.5869e-005
 597.389,155.893, 7.6069e-003, 1.4638e-005
 598.389,156.24, 7.6220e-003, 1.5279e-005
 599.389,156.587, 7.6368e-003, 1.4828e-005
 600.389,156.937, 7.6516e-003, 1.5497e-005
 601.389,157.288, 7.6661e-003, 1.4981e-005
 602.389,157.637, 7.6808e-003, 1.4754e-005
 603.389,157.986, 7.6957e-003, 1.4561e-005
 604.389,158.336, 7.7104e-003, 1.5985e-005
 605.389,158.686, 7.7253e-003, 1.5567e-005
 606.389,159.035, 7.7401e-003, 1.5036e-005
 607.389,159.386, 7.7546e-003, 1.4469e-005
 608.389,159.738, 7.7693e-003, 1.5429e-005
 609.389,160.09, 7.7849e-003, 1.4170e-005
 610.389,160.44, 7.7994e-003, 1.4502e-005
 611.389,160.792, 7.8140e-003, 1.4181e-005
 612.389,161.145, 7.8288e-003, 1.4700e-005
 613.389,161.497, 7.8440e-003, 1.5470e-005
 614.389,161.85, 7.8590e-003, 1.4407e-005
 615.389,162.203, 7.8739e-003, 1.4066e-005
 616.389,162.557, 7.8891e-003, 1.4193e-005
 617.389,162.91, 7.9044e-003, 1.5705e-005
 618.389,163.263, 7.9189e-003, 1.4063e-005
 619.389,163.616, 7.9340e-003, 1.4949e-005
 620.389,163.971, 7.9486e-003, 1.4624e-005
 621.389,164.326, 7.9645e-003, 1.5163e-005
 622.389,164.681, 7.9789e-003, 1.4738e-005
 623.389,165.036, 7.9940e-003, 1.5446e-005
 624.389,165.391, 8.0088e-003, 1.5169e-005
 625.389,165.744, 8.0242e-003, 1.5632e-005
 626.389,166.098, 8.0389e-003, 1.4138e-005
 627.389,166.453, 8.0537e-003, 1.5436e-005
 628.389,166.808, 8.0694e-003, 1.5407e-005
 629.389,167.163, 8.0841e-003, 1.4662e-005
 630.389,167.518, 8.0994e-003, 1.4734e-005
 631.389,167.873, 8.1148e-003, 1.5264e-005
 632.389,168.231, 8.1297e-003, 1.5644e-005
 633.389,168.588, 8.1454e-003, 1.5676e-005
 634.389,168.944, 8.1603e-003, 1.4747e-005
 635.389,169.3, 8.1752e-003, 1.4501e-005
 636.389,169.656, 8.1902e-003, 1.5959e-005
 637.389,170.012, 8.2056e-003, 1.4532e-005
 638.389,170.37, 8.2209e-003, 1.5597e-005
 639.389,170.729, 8.2362e-003, 1.5395e-005
 640.389,171.089, 8.2518e-003, 1.5017e-005
 641.389,171.449, 8.2669e-003, 1.5464e-005
 642.389,171.808, 8.2821e-003, 1.5271e-005
 643.389,172.165, 8.2976e-003, 1.4543e-005
 644.389,172.525, 8.3129e-003, 1.5647e-005
 645.389,172.884, 8.3280e-003, 1.4764e-005
 646.389,173.245, 8.3435e-003, 1.6121e-005
 647.389,173.605, 8.3589e-003, 1.4897e-005
 648.389,173.963, 8.3743e-003, 1.4874e-005
 649.389,174.321, 8.3893e-003, 1.4680e-005
 650.389,174.681, 8.4048e-003, 1.5176e-005
 651.389,175.042, 8.4202e-003, 1.6261e-005
 652.389,175.405, 8.4362e-003, 1.6258e-005
 653.389,175.769, 8.4520e-003, 1.6189e-005
 654.389,176.136, 8.4688e-003, 1.6812e-005
 655.389,176.506, 8.4848e-003, 1.6361e-005
 656.389,176.879, 8.5010e-003, 1.6450e-005
 657.389,177.253, 8.5182e-003, 1.6056e-005
 658.389,177.627, 8.5332e-003, 1.5208e-005
 659.389,177.999, 8.5489e-003, 1.4947e-005
 660.389,178.365, 8.5636e-003, 1.4242e-005
 661.389,178.728, 8.5784e-003, 1.4388e-005
 662.389,179.087, 8.5929e-003, 1.4510e-005
 663.389,179.441, 8.6075e-003, 1.4156e-005
 664.389,179.793, 8.6217e-003, 1.4404e-005
 665.389,180.144, 8.6361e-003, 1.4988e-005
 666.389,180.496, 8.6505e-003, 1.4890e-005
 667.389,180.849, 8.6655e-003, 1.4042e-005
 668.389,181.203, 8.6808e-003, 1.5691e-005
 669.389,181.557, 8.6957e-003, 1.4737e-005
 670.389,181.911, 8.7106e-003, 1.5059e-005
 671.389,182.266, 8.7258e-003, 1.5602e-005
 672.389,182.623, 8.7405e-003, 1.4065e-005
 673.389,182.982, 8.7553e-003, 1.6480e-005
 674.389,183.344, 8.7707e-003, 1.5386e-005
 675.389,183.706, 8.7856e-003, 1.5828e-005
 676.389,184.068, 8.8006e-003, 1.4828e-005
 677.389,184.429, 8.8158e-003, 1.5121e-005
 678.389,184.791, 8.8314e-003, 1.5332e-005
 679.389,185.155, 8.8463e-003, 1.5199e-005
 680.389,185.521, 8.8615e-003, 1.5501e-005
 681.389,185.888, 8.8761e-003, 1.5249e-005
 682.389,186.255, 8.8913e-003, 1.4698e-005
 683.389,186.622, 8.9064e-003, 1.5437e-005
 684.389,186.99, 8.9213e-003, 1.5186e-005
 685.389,187.359, 8.9368e-003, 1.4303e-005
 686.389,187.729, 8.9512e-003, 1.5730e-005
 687.389,188.099, 8.9663e-003, 1.4255e-005
 688.389,188.469, 8.9809e-003, 1.4477e-005
 689.389,188.839, 8.9961e-003, 1.5531e-005
 690.389,189.209, 9.0111e-003, 1.4654e-005
 691.389,189.58, 9.0256e-003, 1.5595e-005
 692.389,189.953, 9.0415e-003, 1.5963e-005
 693.389,190.328, 9.0563e-003, 1.5047e-005
 694.389,190.701, 9.0718e-003, 1.5055e-005
 695.389,191.077, 9.0865e-003, 1.3580e-005
 696.389,191.456, 9.1010e-003, 1.5880e-005
 697.389,191.833, 9.1168e-003, 1.5724e-005
 698.389,192.21, 9.1314e-003, 1.4337e-005
 699.389,192.588, 9.1469e-003, 1.5537e-005
 700.389,192.969, 9.1616e-003, 1.4347e-005
 701.389,193.352, 9.1768e-003, 1.5708e-005
 702.389,193.735, 9.1922e-003, 1.5055e-005
 703.389,194.119, 9.2074e-003, 1.5158e-005
 704.389,194.504, 9.2222e-003, 1.4907e-005
 705.389,194.887, 9.2366e-003, 1.4506e-005
 706.389,195.269, 9.2518e-003, 1.5121e-005
 707.389,195.65, 9.2664e-003, 1.4268e-005
 708.389,196.033, 9.2814e-003, 1.5315e-005
 709.389,196.418, 9.2962e-003, 1.4115e-005
 710.389,196.802, 9.3110e-003, 1.4236e-005
 711.389,197.185, 9.3259e-003, 1.4614e-005
 712.389,197.569, 9.3401e-003, 1.4015e-005
 713.389,197.954, 9.3548e-003, 1.5477e-005
 714.389,198.338, 9.3699e-003, 1.4569e-005
 715.389,198.72, 9.3847e-003, 1.4411e-005
 716.389,199.104, 9.3993e-003, 1.4997e-005
 717.389,199.489, 9.4136e-003, 1.3725e-005
 718.389,199.872, 9.4285e-003, 1.4914e-005
 719.389,200.254, 9.4432e-003, 1.3817e-005
 720.389,200.636, 9.4575e-003, 1.4602e-005
 721.389,201.018, 9.4725e-003, 1.4970e-005
 722.389,201.401, 9.4869e-003, 1.4801e-005
 723.389,201.785, 9.5013e-003, 1.3537e-005
 724.389,202.166, 9.5162e-003, 1.4149e-005
 725.389,202.547, 9.5310e-003, 1.4619e-005
 726.389,202.927, 9.5448e-003, 1.4583e-005
 727.389,203.306, 9.5600e-003, 1.5199e-005
 728.389,203.688, 9.5753e-003, 1.6253e-005
 729.389,204.073, 9.5909e-003, 1.5334e-005
 730.389,204.461, 9.6065e-003, 1.5700e-005
 731.389,204.855, 9.6225e-003, 1.4840e-005
 732.389,205.253, 9.6385e-003, 1.5368e-005
 733.389,205.653, 9.6538e-003, 1.5181e-005
 734.389,206.052, 9.6689e-003, 1.4535e-005
 735.389,206.447, 9.6841e-003, 1.4725e-005
 736.389,206.836, 9.6978e-003, 1.3693e-005
 737.389,207.218, 9.7114e-003, 1.3292e-005
 738.389,207.595, 9.7254e-003, 1.3654e-005
 739.389,207.969, 9.7396e-003, 1.3439e-005
 740.389,208.34, 9.7539e-003, 1.3759e-005
 741.389,208.711, 9.7676e-003, 1.3504e-005
 742.389,209.083, 9.7821e-003, 1.3871e-005
 743.389,209.454, 9.7961e-003, 1.4446e-005
 744.389,209.827, 9.8109e-003, 1.4194e-005
 745.389,210.2, 9.8255e-003, 1.3622e-005
 746.389,210.576, 9.8403e-003, 1.4895e-005
 747.389,210.955, 9.8557e-003, 1.4893e-005
 748.389,211.335, 9.8706e-003, 1.4563e-005
 749.389,211.72, 9.8858e-003, 1.6329e-005
 750.389,212.111, 9.9018e-003, 1.5814e-005
 751.389,212.502, 9.9175e-003, 1.6650e-005
 752.389,212.894, 9.9332e-003, 1.5050e-005
 753.389,213.291, 9.9484e-003, 1.4994e-005
 754.389,213.683, 9.9627e-003, 1.2805e-005
 755.389,214.07, 9.9770e-003, 1.4237e-005
 756.389,214.451, 9.9912e-003, 1.4125e-005
 757.389,214.829, 1.0005e-002, 1.4302e-005
 758.389,215.203, 1.0019e-002, 1.4639e-005
 759.389,215.574, 1.0033e-002, 1.4029e-005
 760.389,215.945, 1.0047e-002, 1.3437e-005
 761.389,216.316, 1.0061e-002, 1.4717e-005
 762.389,216.687, 1.0075e-002, 1.3575e-005
 763.389,217.059, 1.0090e-002, 1.4071e-005
 764.389,217.432, 1.0104e-002, 1.4177e-005
 765.389,217.805, 1.0119e-002, 1.3980e-005
 766.389,218.18, 1.0133e-002, 1.4592e-005
 767.389,218.558, 1.0148e-002, 1.4346e-005
 768.389,218.936, 1.0162e-002, 1.4758e-005
 769.389,219.316, 1.0177e-002, 1.3847e-005
 770.389,219.696, 1.0191e-002, 1.4155e-005
 771.389,220.077, 1.0206e-002, 1.4522e-005
 772.389,220.458, 1.0221e-002, 1.5291e-005
 773.389,220.839, 1.0235e-002, 1.5187e-005
 774.389,221.222, 1.0250e-002, 1.4495e-005
 775.389,221.606, 1.0264e-002, 1.3994e-005
 776.389,221.99, 1.0279e-002, 1.4270e-005
 777.389,222.376, 1.0294e-002, 1.5586e-005
 778.389,222.761, 1.0309e-002, 1.4375e-005
 779.389,223.146, 1.0323e-002, 1.3974e-005
 780.389,223.532, 1.0338e-002, 1.4318e-005
 781.389,223.919, 1.0353e-002, 1.3861e-005
 782.389,224.308, 1.0367e-002, 1.5767e-005
 783.389,224.698, 1.0382e-002, 1.3360e-005
 784.389,225.089, 1.0396e-002, 1.5140e-005
 785.389,225.479, 1.0411e-002, 1.4627e-005
 786.389,225.869, 1.0426e-002, 1.4777e-005
 787.389,226.259, 1.0440e-002, 1.5407e-005
 788.389,226.649, 1.0456e-002, 1.5739e-005
 789.389,227.041, 1.0470e-002, 1.4794e-005
 790.389,227.434, 1.0485e-002, 1.6488e-005
 791.389,227.829, 1.0500e-002, 1.4661e-005
 792.389,228.223, 1.0515e-002, 1.5138e-005
 793.389,228.623, 1.0530e-002, 1.4672e-005
 794.389,229.032, 1.0545e-002, 1.4778e-005
 795.389,229.446, 1.0561e-002, 1.5255e-005
 796.389,229.86, 1.0576e-002, 1.4514e-005
 797.389,230.275, 1.0591e-002, 1.4571e-005
 798.389,230.695, 1.0607e-002, 1.6645e-005
 799.389,231.12, 1.0623e-002, 1.7410e-005
 800.389,231.556, 1.0640e-002, 1.5541e-005
 801.389,232.005, 1.0656e-002, 1.7239e-005
 802.389,232.47, 1.0673e-002, 1.8590e-005
 803.389,232.939, 1.0691e-002, 1.6958e-005
 804.389,233.393, 1.0707e-002, 1.4157e-005
 805.389,233.83, 1.0721e-002, 1.4024e-005
 806.389,234.258, 1.0737e-002, 1.4381e-005
 807.389,234.683, 1.0752e-002, 1.5543e-005
 808.389,235.11, 1.0766e-002, 1.4985e-005
 809.389,235.54, 1.0781e-002, 1.5617e-005
 810.389,235.972, 1.0796e-002, 1.4518e-005
 811.389,236.408, 1.0811e-002, 1.4916e-005
 812.389,236.837, 1.0827e-002, 1.5160e-005
 813.389,237.255, 1.0841e-002, 1.4257e-005
 814.389,237.669, 1.0856e-002, 1.4348e-005
 815.389,238.082, 1.0870e-002, 1.3989e-005
 816.389,238.494, 1.0885e-002, 1.5422e-005
 817.389,238.905, 1.0899e-002, 1.4372e-005
 818.389,239.313, 1.0914e-002, 1.3524e-005
 819.389,239.713, 1.0928e-002, 1.3621e-005
 820.389,240.11, 1.0942e-002, 1.5473e-005
 821.389,240.507, 1.0956e-002, 1.4887e-005
 822.389,240.906, 1.0971e-002, 1.4265e-005
 823.389,241.307, 1.0986e-002, 1.5520e-005
 824.389,241.712, 1.1001e-002, 1.4108e-005
 825.389,242.12, 1.1016e-002, 1.3842e-005
 826.389,242.524, 1.1030e-002, 1.3662e-005
 827.389,242.925, 1.1044e-002, 1.4307e-005
 828.389,243.323, 1.1059e-002, 1.4930e-005
 829.389,243.721, 1.1073e-002, 1.4092e-005
 830.389,244.121, 1.1088e-002, 1.4276e-005
 831.389,244.521, 1.1103e-002, 1.4531e-005
 832.389,244.92, 1.1117e-002, 1.4193e-005
 833.389,245.316, 1.1131e-002, 1.4529e-005
 834.389,245.711, 1.1147e-002, 1.4175e-005
 835.389,246.106, 1.1160e-002, 1.4346e-005
 836.389,246.5, 1.1175e-002, 1.5582e-005
 837.389,246.894, 1.1190e-002, 1.5397e-005
 838.389,247.286, 1.1205e-002, 1.5140e-005
 839.389,247.677, 1.1219e-002, 1.4625e-005
 840.389,248.069, 1.1234e-002, 1.4695e-005
 841.389,248.459, 1.1249e-002, 1.5212e-005
 842.389,248.845, 1.1264e-002, 1.5279e-005
 843.389,249.231, 1.1278e-002, 1.5144e-005
 844.389,249.618, 1.1293e-002, 1.5374e-005
 845.389,250.006, 1.1308e-002, 1.3880e-005
 846.389,250.394, 1.1323e-002, 1.5479e-005
 847.389,250.781, 1.1338e-002, 1.5130e-005
 848.389,251.168, 1.1353e-002, 1.6161e-005
 849.389,251.551, 1.1368e-002, 1.4644e-005
 850.389,251.934, 1.1383e-002, 1.6653e-005
 851.389,252.318, 1.1399e-002, 1.5703e-005
 852.389,252.707, 1.1414e-002, 1.6180e-005
 853.389,253.099, 1.1430e-002, 1.5709e-005
 854.389,253.502, 1.1446e-002, 1.6036e-005
 855.389,253.912, 1.1463e-002, 1.6565e-005
 856.389,254.325, 1.1480e-002, 1.5757e-005
 857.389,254.738, 1.1495e-002, 1.5905e-005
 858.389,255.146, 1.1511e-002, 1.5633e-005
 859.389,255.545, 1.1526e-002, 1.5051e-005
 860.389,255.937, 1.1541e-002, 1.3730e-005
 861.389,256.326, 1.1556e-002, 1.4806e-005
 862.389,256.716, 1.1571e-002, 1.4340e-005
 863.389,257.108, 1.1586e-002, 1.5082e-005
 864.389,257.507, 1.1602e-002, 1.5964e-005
 865.389,257.916, 1.1619e-002, 1.6388e-005
 866.389,258.332, 1.1634e-002, 1.6225e-005
 867.389,258.751, 1.1650e-002, 1.5587e-005
 868.389,259.173, 1.1665e-002, 1.4493e-005
 869.389,259.594, 1.1681e-002, 1.5265e-005
 870.389,260.008, 1.1696e-002, 1.4751e-005
 871.389,260.408, 1.1710e-002, 1.4815e-005
 872.389,260.8, 1.1725e-002, 1.4010e-005
 873.389,261.185, 1.1740e-002, 1.5560e-005
 874.389,261.571, 1.1755e-002, 1.5089e-005
 875.389,261.959, 1.1771e-002, 1.4747e-005
 876.389,262.351, 1.1786e-002, 1.5640e-005
 877.389,262.744, 1.1802e-002, 1.6284e-005
 878.389,263.137, 1.1817e-002, 1.5777e-005
 879.389,263.53, 1.1832e-002, 1.4390e-005
 880.389,263.926, 1.1847e-002, 1.5536e-005
 881.389,264.323, 1.1864e-002, 1.4786e-005
 882.389,264.718, 1.1878e-002, 1.5688e-005
 883.389,265.113, 1.1894e-002, 1.5529e-005
 884.389,265.51, 1.1910e-002, 1.4601e-005
 885.389,265.905, 1.1925e-002, 1.6127e-005
 886.389,266.303, 1.1941e-002, 1.5412e-005
 887.389,266.702, 1.1956e-002, 1.5071e-005
 888.389,267.103, 1.1973e-002, 1.4146e-005
 889.389,267.505, 1.1988e-002, 1.5744e-005
 890.389,267.905, 1.2003e-002, 1.6393e-005
 891.389,268.306, 1.2019e-002, 1.5333e-005
 892.389,268.704, 1.2035e-002, 1.5176e-005
 893.389,269.1, 1.2051e-002, 1.5202e-005
 894.389,269.496, 1.2066e-002, 1.5582e-005
 895.389,269.891, 1.2082e-002, 1.5449e-005
 896.389,270.287, 1.2097e-002, 1.4976e-005
 897.389,270.684, 1.2113e-002, 1.5906e-005
 898.389,271.082, 1.2129e-002, 1.5411e-005
 899.389,271.481, 1.2146e-002, 1.5200e-005
 900.389,271.881, 1.2161e-002, 1.5071e-005
 901.389,272.285, 1.2177e-002, 1.5453e-005
 902.389,272.689, 1.2193e-002, 1.5715e-005
 903.389,273.094, 1.2209e-002, 1.6795e-005
 904.389,273.508, 1.2226e-002, 1.7322e-005
 905.389,273.929, 1.2243e-002, 1.9065e-005
 906.389,274.354, 1.2261e-002, 1.6919e-005
 907.389,274.782, 1.2278e-002, 1.7606e-005
 908.389,275.217, 1.2295e-002, 1.7107e-005
 909.389,275.658, 1.2312e-002, 1.4260e-005
 910.389,276.1, 1.2328e-002, 1.6302e-005
 911.389,276.552, 1.2345e-002, 1.7531e-005
 912.389,277.021, 1.2363e-002, 1.5902e-005
 913.389,277.529, 1.2382e-002, 1.9311e-005
 914.389,278.115, 1.2403e-002, 2.1605e-005
 915.389,278.742, 1.2421e-002, 1.2778e-005
 916.389,279.26, 1.2433e-002, 1.0847e-005
 917.389,279.691, 1.2445e-002, 1.1746e-005
 918.389,280.079, 1.2457e-002, 1.3014e-005
 919.389,280.453, 1.2472e-002, 1.4603e-005
 920.389,280.825, 1.2487e-002, 1.4505e-005
 921.389,281.197, 1.2502e-002, 1.4856e-005
 922.389,281.566, 1.2518e-002, 1.5498e-005
 923.389,281.935, 1.2533e-002, 1.6391e-005
 924.389,282.304, 1.2549e-002, 1.5058e-005
 925.389,282.675, 1.2564e-002, 1.5571e-005
 926.389,283.052, 1.2580e-002, 1.6017e-005
 927.389,283.435, 1.2596e-002, 1.5322e-005
 928.389,283.819, 1.2612e-002, 1.5301e-005
 929.389,284.204, 1.2627e-002, 1.5821e-005
 930.389,284.592, 1.2643e-002, 1.6236e-005
 931.389,284.981, 1.2659e-002, 1.5504e-005
 932.389,285.368, 1.2675e-002, 1.5350e-005
 933.389,285.755, 1.2691e-002, 1.5156e-005
 934.389,286.144, 1.2707e-002, 1.5911e-005
 935.389,286.535, 1.2723e-002, 1.5669e-005
 936.389,286.926, 1.2739e-002, 1.5531e-005
 937.389,287.316, 1.2754e-002, 1.5721e-005
 938.389,287.703, 1.2770e-002, 1.5056e-005
 939.389,288.087, 1.2786e-002, 1.4554e-005
 940.389,288.47, 1.2801e-002, 1.5731e-005
 941.389,288.846, 1.2817e-002, 1.4232e-005
 942.389,289.216, 1.2831e-002, 1.5279e-005
 943.389,289.589, 1.2847e-002, 1.6823e-005
 944.389,289.965, 1.2864e-002, 1.6644e-005
 945.389,290.341, 1.2879e-002, 1.5789e-005
 946.389,290.714, 1.2895e-002, 1.5809e-005
 947.389,291.087, 1.2911e-002, 1.6014e-005
 948.389,291.467, 1.2927e-002, 1.7511e-005
 949.389,291.849, 1.2945e-002, 1.5103e-005
 950.389,292.215, 1.2959e-002, 1.4638e-005
 951.389,292.572, 1.2974e-002, 1.6781e-005
 952.389,292.934, 1.2991e-002, 1.7115e-005
 953.389,293.312, 1.3009e-002, 1.8773e-005
 954.389,293.701, 1.3026e-002, 1.6976e-005
 955.389,294.09, 1.3043e-002, 1.7025e-005
 956.389,294.481, 1.3060e-002, 1.7883e-005
 957.389,294.873, 1.3077e-002, 1.6245e-005
 958.389,295.259, 1.3093e-002, 1.7187e-005
 959.389,295.644, 1.3110e-002, 1.6404e-005
 960.389,296.026, 1.3126e-002, 1.5949e-005
 961.389,296.406, 1.3141e-002, 1.6752e-005
 962.389,296.785, 1.3158e-002, 1.6522e-005
 963.389,297.159, 1.3173e-002, 1.5901e-005
 964.389,297.521, 1.3190e-002, 1.4997e-005
 965.389,297.877, 1.3205e-002, 1.5634e-005
 966.389,298.23, 1.3221e-002, 1.5662e-005
 967.389,298.586, 1.3237e-002, 1.6332e-005
 968.389,298.952, 1.3254e-002, 1.7852e-005
 969.389,299.327, 1.3271e-002, 1.7170e-005
 970.389,299.703, 1.3287e-002, 1.5848e-005
 971.389,300.074, 1.3302e-002, 1.5083e-005
 972.389,300.436, 1.3318e-002, 1.5325e-005
 973.389,300.791, 1.3334e-002, 1.5067e-005
 974.389,301.147, 1.3350e-002, 1.6317e-005
 975.389,301.509, 1.3367e-002, 1.7934e-005
 976.389,301.88, 1.3384e-002, 1.6425e-005
 977.389,302.253, 1.3401e-002, 1.7432e-005
 978.389,302.629, 1.3417e-002, 1.6055e-005
 979.389,303.002, 1.3434e-002, 1.7082e-005
 980.389,303.372, 1.3450e-002, 1.5583e-005
 981.389,303.743, 1.3467e-002, 1.6910e-005
 982.389,304.118, 1.3483e-002, 1.6739e-005
 983.389,304.496, 1.3500e-002, 1.7067e-005
 984.389,304.874, 1.3517e-002, 1.6740e-005
 985.389,305.249, 1.3534e-002, 1.6858e-005
 986.389,305.623, 1.3550e-002, 1.6965e-005
 987.389,306, 1.3567e-002, 1.6677e-005
 988.389,306.379, 1.3585e-002, 1.6697e-005
 989.389,306.754, 1.3601e-002, 1.6732e-005
 990.389,307.125, 1.3617e-002, 1.5800e-005
 991.389,307.497, 1.3634e-002, 1.8909e-005
 992.389,307.876, 1.3652e-002, 1.7859e-005
 993.389,308.255, 1.3670e-002, 1.7616e-005
 994.389,308.635, 1.3688e-002, 1.7378e-005
 995.389,309.013, 1.3705e-002, 1.7938e-005
 996.389,309.39, 1.3722e-002, 1.8013e-005
 997.389,309.77, 1.3740e-002, 1.7802e-005
 998.389,310.145, 1.3757e-002, 1.7320e-005
 999.389,310.516, 1.3773e-002, 1.6791e-005
1000.39,310.89, 1.3791e-002, 1.7075e-005
1001.39,311.267, 1.3809e-002, 1.8022e-005
1002.39,311.644, 1.3827e-002, 1.7491e-005
1003.39,312.017, 1.3843e-002, 1.5256e-005
1004.39,312.381, 1.3859e-002, 1.5775e-005
1005.39,312.745, 1.3875e-002, 1.6962e-005
1006.39,313.115, 1.3893e-002, 1.6843e-005
1007.39,313.487, 1.3911e-002, 1.6999e-005
1008.39,313.857, 1.3927e-002, 1.6993e-005
1009.39,314.22, 1.3943e-002, 1.6835e-005
1010.39,314.582, 1.3960e-002, 1.7402e-005
1011.39,314.947, 1.3978e-002, 1.8082e-005
1012.39,315.311, 1.3995e-002, 1.6424e-005
1013.39,315.672, 1.4011e-002, 1.6355e-005
1014.39,316.034, 1.4029e-002, 1.7601e-005
1015.39,316.399, 1.4046e-002, 1.7260e-005
1016.39,316.766, 1.4064e-002, 1.7651e-005
1017.39,317.138, 1.4081e-002, 1.6986e-005
1018.39,317.512, 1.4099e-002, 1.7023e-005
1019.39,317.884, 1.4116e-002, 1.7842e-005
1020.39,318.258, 1.4134e-002, 1.7764e-005
1021.39,318.635, 1.4152e-002, 1.8387e-005
1022.39,319.016, 1.4170e-002, 1.7344e-005
1023.39,319.406, 1.4189e-002, 1.7373e-005
1024.39,319.801, 1.4207e-002, 1.7722e-005
1025.39,320.191, 1.4225e-002, 1.6255e-005
1026.39,320.573, 1.4241e-002, 1.7780e-005
1027.39,320.94, 1.4258e-002, 1.6830e-005
1028.39,321.291, 1.4274e-002, 1.6672e-005
1029.39,321.636, 1.4291e-002, 1.7692e-005
1030.39,321.996, 1.4311e-002, 2.0235e-005
1031.39,322.377, 1.4330e-002, 1.9748e-005
1032.39,322.768, 1.4348e-002, 1.8251e-005
1033.39,323.159, 1.4367e-002, 1.8906e-005
1034.39,323.554, 1.4385e-002, 1.8713e-005
1035.39,323.955, 1.4404e-002, 1.8244e-005
1036.39,324.366, 1.4424e-002, 1.9996e-005
1037.39,324.761, 1.4442e-002, 1.4812e-005
1038.39,325.128, 1.4458e-002, 1.8761e-005
1039.39,325.476, 1.4475e-002, 1.5290e-005
1040.39,325.81, 1.4492e-002, 1.7276e-005
1041.39,326.149, 1.4511e-002, 2.0251e-005
1042.39,326.503, 1.4530e-002, 1.9347e-005
1043.39,326.872, 1.4550e-002, 2.0027e-005
1044.39,327.25, 1.4570e-002, 1.9059e-005
1045.39,327.625, 1.4587e-002, 1.7138e-005
1046.39,327.992, 1.4605e-002, 1.7948e-005
1047.39,328.355, 1.4623e-002, 1.6892e-005
1048.39,328.719, 1.4641e-002, 1.8373e-005
1049.39,329.092, 1.4660e-002, 1.9302e-005
1050.39,329.466, 1.4679e-002, 1.7781e-005
1051.39,329.823, 1.4696e-002, 1.6540e-005
1052.39,330.165, 1.4714e-002, 1.6987e-005
1053.39,330.505, 1.4732e-002, 1.8669e-005
1054.39,330.853, 1.4751e-002, 1.9214e-005
1055.39,331.218, 1.4771e-002, 2.1255e-005
1056.39,331.599, 1.4791e-002, 2.0457e-005
1057.39,331.987, 1.4811e-002, 2.0010e-005
1058.39,332.382, 1.4831e-002, 1.9213e-005
1059.39,332.774, 1.4850e-002, 1.9990e-005
1060.39,333.155, 1.4869e-002, 1.9118e-005
1061.39,333.52, 1.4887e-002, 1.7865e-005
1062.39,333.876, 1.4906e-002, 1.9330e-005
1063.39,334.222, 1.4924e-002, 1.6535e-005
1064.39,334.556, 1.4942e-002, 1.8045e-005
1065.39,334.891, 1.4961e-002, 1.9858e-005
1066.39,335.24, 1.4980e-002, 2.0277e-005
1067.39,335.605, 1.5002e-002, 2.2322e-005
1068.39,335.986, 1.5023e-002, 2.0568e-005
1069.39,336.371, 1.5043e-002, 2.0783e-005
1070.39,336.749, 1.5062e-002, 1.9048e-005
1071.39,337.125, 1.5082e-002, 1.9743e-005
1072.39,337.505, 1.5102e-002, 1.9207e-005