File: data_backup/8.1mm/oligHawk010s1r4-8.25mm.csv
#EXPORTTYPE:           ,DATA ALL
#FILE:                 ,oligHawk010s1ru4.ngb-sle
#FORMAT:               ,NETZSCH5
#FTYPE:                ,ANSI
#IDENTITY:             ,oligoclase
#DECIMAL:              ,POINT
#SEPARATOR:            ,COMMA
#MTYPE:                ,DIL
#INSTRUMENT:           ,NETZSCH DIL 402C
#PROJECT:              ,feldspar
#DATE/TIME:            ,8/25/2019 9:38:56 AM (UTC-5)
#CORR. FILE:           ,
#TEMPCAL:              ,TCALZERO.TMX
#LABORATORY:           ,Mineral Physics
#OPERATOR:             ,PAG
#REMARK:               ,bare, norm start, for short plageioclase, sapphire std, long direction 010, run 4th time
#SAMPLE:               ,hawk mine 010 run4
#SAMPLE LENGTH /mm:    ,8.25
#MATERIAL:             ,sapphire stnd
#MEASMODE:             ,Standard Expansion
#PURGE GAS 1:          ,ARGON
#FLOW RATE 1 /(ml/min):,75
#M.RANGE /µm:          ,500
#CORR. CODE:           ,010
#RANGE:                ,20.0°C/3.0(K/min)/250.0°C
#SEGMENT:              ,S1/1
#SEG. 1:               ,20.0°C/3.0(K/min)/250.0°C

##Temp./°C,Time/min,dL/Lo,Alpha/(1/K)
 22.66800, 0.00000, 2.4570e-005, 1.6580e-005
 23.16800, 4.62543, 4.4171e-005,-1.1040e-005
 23.66800, 4.97074, 3.3875e-005,-1.5467e-005
 24.16800, 5.22375, 2.4334e-005,-1.8087e-005
 24.66800, 5.43234, 1.5547e-005,-1.5483e-005
 25.16800, 5.61312, 7.4601e-006,-1.5680e-005
 25.66800, 5.77394,-3.3616e-008,-1.3521e-005
 26.16800, 5.92247,-6.4992e-006,-1.2353e-005
 26.66800, 6.06100,-1.2140e-005,-1.1849e-005
 27.16800, 6.19202,-1.7847e-005,-1.0512e-005
 27.66800, 6.31714,-2.3527e-005,-9.7561e-006
 28.16800, 6.43769,-2.7984e-005,-9.3094e-006
 28.66800, 6.55401,-3.2414e-005,-7.8600e-006
 29.16800, 6.66725,-3.5845e-005,-7.5421e-006
 29.66800, 6.77788,-3.9766e-005,-5.4765e-006
 30.16800, 6.88622,-4.1913e-005,-5.7298e-006
 30.66800, 6.99260,-4.4820e-005,-4.4922e-006
 31.16800, 7.09757,-4.6789e-005,-4.6511e-006
 31.66800, 7.20113,-4.9147e-005,-3.7396e-006
 32.16800, 7.30358,-5.1726e-005,-3.5264e-006
 32.66800, 7.40516,-5.2441e-005,-1.9424e-006
 33.16800, 7.50609,-5.3054e-005,-5.6272e-007
 33.66800, 7.60651,-5.3445e-005,-7.5764e-007
 34.16800, 7.70674,-5.3698e-005,-3.6254e-007
 34.66800, 7.80672,-5.3766e-005, 1.0537e-006
 35.16800, 7.90670,-5.2764e-005, 1.3030e-006
 35.66800, 8.00682,-5.1996e-005, 1.7890e-006
 36.16800, 8.10715,-5.1435e-005, 3.1518e-006
 36.66800, 8.20722,-4.9257e-005, 3.2682e-006
 37.16800, 8.30725,-4.7230e-005, 3.1022e-006
 37.66800, 8.40727,-4.5807e-005, 3.9985e-006
 38.16800, 8.50722,-4.3443e-005, 4.8310e-006
 38.66800, 8.60715,-4.1108e-005, 5.0075e-006
 39.16800, 8.70705,-3.8880e-005, 4.9243e-006
 39.66800, 8.80685,-3.5677e-005, 6.3207e-006
 40.16800, 8.90673,-3.2793e-005, 5.7612e-006
 40.66800, 9.00657,-3.0160e-005, 6.9206e-006
 41.16800, 9.10647,-2.6367e-005, 7.0897e-006
 41.66800, 9.20612,-2.2601e-005, 7.2558e-006
 42.16800, 9.30592,-1.8969e-005, 6.9227e-006
 42.66800, 9.40545,-1.5325e-005, 7.7955e-006
 43.16800, 9.50479,-1.1595e-005, 8.1537e-006
 43.66800, 9.60399,-7.3888e-006, 8.1313e-006
 44.16800, 9.70337,-3.4635e-006, 7.9168e-006
 44.66800, 9.80245, 8.3045e-007, 8.3420e-006
 45.16800, 9.90161, 4.9367e-006, 8.4836e-006
 45.66800,10.00029, 9.0833e-006, 8.4294e-006
 46.16800,10.09893, 1.3428e-005, 8.9490e-006
 46.66800,10.19726, 1.8010e-005, 9.2145e-006
 47.16800,10.29510, 2.2685e-005, 9.3503e-006
 47.66800,10.39249, 2.7116e-005, 9.0072e-006
 48.16800,10.48953, 3.1400e-005, 9.1260e-006
 48.66800,10.58634, 3.6382e-005, 9.2422e-006
 49.16800,10.68290, 4.1282e-005, 1.0270e-005
 49.66800,10.77912, 4.6419e-005, 9.6147e-006
 50.16800,10.87519, 5.1283e-005, 9.9270e-006
 50.66800,10.97117, 5.6325e-005, 9.6525e-006
 51.16800,11.06710, 6.1022e-005, 9.8695e-006
 51.66800,11.16257, 6.6213e-005, 9.8425e-006
 52.16800,11.25780, 7.0806e-005, 1.0345e-005
 52.66800,11.35266, 7.5961e-005, 1.0643e-005
 53.16800,11.44721, 8.1430e-005, 1.0421e-005
 53.66800,11.54129, 8.6532e-005, 1.0470e-005
 54.16800,11.63539, 9.1818e-005, 1.0441e-005
 54.66800,11.72922, 9.7212e-005, 1.1055e-005
 55.16800,11.82283, 1.0286e-004, 1.0862e-005
 55.66800,11.91621, 1.0771e-004, 1.0632e-005
 56.16800,12.00951, 1.1351e-004, 1.0939e-005
 56.66800,12.10268, 1.1892e-004, 1.1203e-005
 57.16800,12.19577, 1.2421e-004, 1.0838e-005
 57.66800,12.28862, 1.2990e-004, 1.1345e-005
 58.16800,12.38129, 1.3591e-004, 1.1719e-005
 58.66800,12.47375, 1.4189e-004, 1.1763e-005
 59.16800,12.56622, 1.4794e-004, 1.1271e-005
 59.66800,12.65869, 1.5299e-004, 1.1503e-005
 60.16800,12.75108, 1.5879e-004, 1.1726e-005
 60.66800,12.84330, 1.6494e-004, 1.1935e-005
 61.16800,12.93554, 1.7080e-004, 1.2031e-005
 61.66800,13.02780, 1.7659e-004, 1.2386e-005
 62.16800,13.12014, 1.8313e-004, 1.2612e-005
 62.66800,13.21234, 1.8952e-004, 1.2553e-005
 63.16800,13.30438, 1.9583e-004, 1.2807e-005
 63.66800,13.39645, 2.0226e-004, 1.3332e-005
 64.16800,13.48851, 2.0865e-004, 1.2509e-005
 64.66800,13.58050, 2.1506e-004, 1.2768e-005
 65.16800,13.67266, 2.2166e-004, 1.3090e-005
 65.66800,13.76481, 2.2831e-004, 1.3611e-005
 66.16800,13.85703, 2.3496e-004, 1.3741e-005
 66.66800,13.94958, 2.4234e-004, 1.3758e-005
 67.16800,14.04224, 2.4913e-004, 1.3649e-005
 67.66800,14.13487, 2.5543e-004, 1.3368e-005
 68.16800,14.22782, 2.6237e-004, 1.3743e-005
 68.66800,14.32110, 2.6909e-004, 1.3688e-005
 69.16800,14.41451, 2.7641e-004, 1.4250e-005
 69.66800,14.50806, 2.8340e-004, 1.4075e-005
 70.16800,14.60163, 2.9050e-004, 1.4159e-005
 70.66800,14.69510, 2.9761e-004, 1.4817e-005
 71.16800,14.78868, 3.0471e-004, 1.4239e-005
 71.66800,14.88220, 3.1223e-004, 1.4342e-005
 72.16800,14.97565, 3.1911e-004, 1.4379e-005
 72.66800,15.06903, 3.2637e-004, 1.4950e-005
 73.16800,15.16248, 3.3429e-004, 1.4431e-005
 73.66800,15.25605, 3.4134e-004, 1.4665e-005
 74.16800,15.34981, 3.4845e-004, 1.5181e-005
 74.66800,15.44379, 3.5617e-004, 1.5299e-005
 75.16800,15.53792, 3.6371e-004, 1.5376e-005
 75.66800,15.63228, 3.7145e-004, 1.5243e-005
 76.16800,15.72686, 3.7944e-004, 1.5222e-005
 76.66800,15.82138, 3.8680e-004, 1.5438e-005
 77.16800,15.91588, 3.9476e-004, 1.5665e-005
 77.66800,16.01043, 4.0256e-004, 1.5451e-005
 78.16800,16.10494, 4.1000e-004, 1.5744e-005
 78.66800,16.19969, 4.1835e-004, 1.5538e-005
 79.16800,16.29445, 4.2571e-004, 1.5117e-005
 79.66800,16.38919, 4.3356e-004, 1.5345e-005
 80.16800,16.48392, 4.4083e-004, 1.5307e-005
 80.66800,16.57880, 4.4868e-004, 1.5581e-005
 81.16800,16.67397, 4.5660e-004, 1.6083e-005
 81.66800,16.76926, 4.6491e-004, 1.5200e-005
 82.16800,16.86482, 4.7193e-004, 1.5658e-005
 82.66800,16.96029, 4.8029e-004, 1.5746e-005
 83.16800,17.05589, 4.8810e-004, 1.5705e-005
 83.66800,17.15175, 4.9578e-004, 1.5777e-005
 84.16800,17.24790, 5.0405e-004, 1.6227e-005
 84.66800,17.34407, 5.1183e-004, 1.5860e-005
 85.16800,17.44019, 5.1959e-004, 1.5882e-005
 85.66800,17.53636, 5.2776e-004, 1.6181e-005
 86.16800,17.63258, 5.3587e-004, 1.6233e-005
 86.66800,17.72907, 5.4407e-004, 1.5831e-005
 87.16800,17.82567, 5.5211e-004, 1.5855e-005
 87.66800,17.92233, 5.5978e-004, 1.6159e-005
 88.16800,18.01906, 5.6784e-004, 1.6066e-005
 88.66800,18.11576, 5.7583e-004, 1.6370e-005
 89.16800,18.21260, 5.8409e-004, 1.6284e-005
 89.66800,18.30973, 5.9221e-004, 1.5941e-005
 90.16800,18.40688, 6.0041e-004, 1.6552e-005
 90.66800,18.50415, 6.0876e-004, 1.6283e-005
 91.16800,18.60162, 6.1684e-004, 1.6362e-005
 91.66800,18.69925, 6.2465e-004, 1.6478e-005
 92.16800,18.79713, 6.3318e-004, 1.6744e-005
 92.66800,18.89511, 6.4150e-004, 1.6587e-005
 93.16800,18.99313, 6.4979e-004, 1.6299e-005
 93.66800,19.09128, 6.5835e-004, 1.7260e-005
 94.16800,19.18963, 6.6684e-004, 1.6726e-005
 94.66800,19.28800, 6.7465e-004, 1.6167e-005
 95.16800,19.38647, 6.8350e-004, 1.7040e-005
 95.66800,19.48494, 6.9151e-004, 1.6856e-005
 96.16800,19.58375, 6.9996e-004, 1.6898e-005
 96.66800,19.68285, 7.0839e-004, 1.7011e-005
 97.16800,19.78220, 7.1768e-004, 1.6774e-005
 97.66800,19.88152, 7.2577e-004, 1.6989e-005
 98.16800,19.98088, 7.3366e-004, 1.6951e-005
 98.66800,20.08028, 7.4238e-004, 1.7406e-005
 99.16800,20.17995, 7.5104e-004, 1.6713e-005
 99.66800,20.27975, 7.5992e-004, 1.7605e-005
100.168,20.37937, 7.6824e-004, 1.7351e-005
100.668,20.47912, 7.7674e-004, 1.6758e-005
101.168,20.57889, 7.8539e-004, 1.7570e-005
101.668,20.67889, 7.9428e-004, 1.7233e-005
102.168,20.77887, 8.0250e-004, 1.6681e-005
102.668,20.87861, 8.1089e-004, 1.7051e-005
103.168,20.97857, 8.1971e-004, 1.7776e-005
103.668,21.07851, 8.2859e-004, 1.6840e-005
104.168,21.17846, 8.3712e-004, 1.7033e-005
104.668,21.27856, 8.4543e-004, 1.7473e-005
105.168,21.37893, 8.5442e-004, 1.7349e-005
105.668,21.47950, 8.6300e-004, 1.6459e-005
106.168,21.58058, 8.7119e-004, 1.7679e-005
106.668,21.68151, 8.8008e-004, 1.7392e-005
107.168,21.78262, 8.8864e-004, 1.7430e-005
107.668,21.88380, 8.9735e-004, 1.7527e-005
108.168,21.98479, 9.0598e-004, 1.8352e-005
108.668,22.08590, 9.1561e-004, 1.8061e-005
109.168,22.18716, 9.2462e-004, 1.7329e-005
109.668,22.28854, 9.3308e-004, 1.7283e-005
110.168,22.39018, 9.4205e-004, 1.9645e-005
110.668,22.49196, 9.5157e-004, 1.7971e-005
111.168,22.59388, 9.6063e-004, 1.7577e-005
111.668,22.69608, 9.6877e-004, 1.8215e-005
112.168,22.79824, 9.7873e-004, 1.8323e-005
112.668,22.90041, 9.8798e-004, 1.9524e-005
113.168,23.00258, 9.9760e-004, 1.8168e-005
113.668,23.10468, 1.0066e-003, 1.7559e-005
114.168,23.20679, 1.0149e-003, 1.7599e-005
114.668,23.30892, 1.0240e-003, 1.7906e-005
115.168,23.41108, 1.0338e-003, 1.9317e-005
115.668,23.51348, 1.0432e-003, 1.9697e-005
116.168,23.61583, 1.0524e-003, 1.7326e-005
116.668,23.71832, 1.0611e-003, 1.7627e-005
117.168,23.82082, 1.0698e-003, 1.7643e-005
117.668,23.92355, 1.0785e-003, 1.8367e-005
118.168,24.02629, 1.0888e-003, 1.8681e-005
118.668,24.12909, 1.0970e-003, 1.7312e-005
119.168,24.23198, 1.1059e-003, 1.7684e-005
119.668,24.33502, 1.1146e-003, 1.8441e-005
120.168,24.43802, 1.1244e-003, 1.8241e-005
120.668,24.54131, 1.1333e-003, 1.9086e-005
121.168,24.64471, 1.1431e-003, 1.8328e-005
121.668,24.74838, 1.1520e-003, 1.7685e-005
122.168,24.85264, 1.1606e-003, 1.8126e-005
122.668,24.95712, 1.1706e-003, 1.9174e-005
123.168,25.06161, 1.1794e-003, 1.7877e-005
123.668,25.16626, 1.1884e-003, 1.8762e-005
124.168,25.27095, 1.1978e-003, 1.8532e-005
124.668,25.37547, 1.2077e-003, 1.8771e-005
125.168,25.47987, 1.2160e-003, 1.6903e-005
125.668,25.58369, 1.2246e-003, 1.7531e-005
126.168,25.68751, 1.2336e-003, 1.7699e-005
126.668,25.79161, 1.2429e-003, 1.7869e-005
127.168,25.89568, 1.2516e-003, 1.7448e-005
127.668,25.99972, 1.2602e-003, 1.8068e-005
128.168,26.10379, 1.2693e-003, 1.7800e-005
128.668,26.20807, 1.2777e-003, 1.7314e-005
129.168,26.31244, 1.2873e-003, 1.8478e-005
129.668,26.41696, 1.2962e-003, 1.7421e-005
130.168,26.52125, 1.3046e-003, 1.7581e-005
130.668,26.62566, 1.3137e-003, 1.7689e-005
131.168,26.73025, 1.3222e-003, 1.7413e-005
131.668,26.83498, 1.3316e-003, 1.8995e-005
132.168,26.93990, 1.3405e-003, 1.7429e-005
132.668,27.04480, 1.3493e-003, 1.8361e-005
133.168,27.14955, 1.3584e-003, 1.7740e-005
133.668,27.25461, 1.3671e-003, 1.7559e-005
134.168,27.35978, 1.3760e-003, 1.8574e-005
134.668,27.46494, 1.3858e-003, 1.7826e-005
135.168,27.57026, 1.3942e-003, 1.7872e-005
135.668,27.67544, 1.4027e-003, 1.8291e-005
136.168,27.78080, 1.4128e-003, 1.8589e-005
136.668,27.88631, 1.4216e-003, 1.7445e-005
137.168,27.99176, 1.4308e-003, 1.8958e-005
137.668,28.09759, 1.4399e-003, 1.7974e-005
138.168,28.20356, 1.4488e-003, 1.7883e-005
138.668,28.30945, 1.4576e-003, 1.9528e-005
139.168,28.41552, 1.4676e-003, 1.8123e-005
139.668,28.52154, 1.4762e-003, 1.7686e-005
140.168,28.62752, 1.4849e-003, 1.8518e-005
140.668,28.73344, 1.4952e-003, 1.8594e-005
141.168,28.83917, 1.5039e-003, 1.7388e-005
141.668,28.94464, 1.5129e-003, 1.7044e-005
142.168,29.05014, 1.5206e-003, 1.7450e-005
142.668,29.15561, 1.5301e-003, 1.8259e-005
143.168,29.26108, 1.5392e-003, 1.7539e-005
143.668,29.36674, 1.5482e-003, 1.8899e-005
144.168,29.47257, 1.5568e-003, 1.7231e-005
144.668,29.57848, 1.5656e-003, 1.7836e-005
145.168,29.68482, 1.5746e-003, 1.7985e-005
145.668,29.79142, 1.5838e-003, 1.8683e-005
146.168,29.89810, 1.5931e-003, 1.8036e-005
146.668,30.00505, 1.6018e-003, 1.7753e-005
147.168,30.11193, 1.6110e-003, 1.8489e-005
147.668,30.21886, 1.6202e-003, 1.8160e-005
148.168,30.32597, 1.6295e-003, 1.8734e-005
148.668,30.43300, 1.6386e-003, 1.8640e-005
149.168,30.53998, 1.6483e-003, 1.8614e-005
149.668,30.64698, 1.6576e-003, 1.8886e-005
150.168,30.75416, 1.6670e-003, 1.8392e-005
150.668,30.86134, 1.6763e-003, 1.7535e-005
151.168,30.96863, 1.6848e-003, 1.9738e-005
151.668,31.07595, 1.6945e-003, 1.8325e-005
152.168,31.18365, 1.7036e-003, 1.7805e-005
152.668,31.29136, 1.7134e-003, 1.9210e-005
153.168,31.39907, 1.7224e-003, 1.8481e-005
153.668,31.50676, 1.7315e-003, 1.9594e-005
154.168,31.61459, 1.7412e-003, 1.7955e-005
154.668,31.72251, 1.7506e-003, 1.9173e-005
155.168,31.83041, 1.7601e-003, 1.8789e-005
155.668,31.93820, 1.7689e-003, 1.7804e-005
156.168,32.04601, 1.7783e-003, 1.8317e-005
156.668,32.15396, 1.7873e-003, 1.8501e-005
157.168,32.26201, 1.7965e-003, 1.8617e-005
157.668,32.37004, 1.8062e-003, 1.8824e-005
158.168,32.47791, 1.8156e-003, 1.8646e-005
158.668,32.58595, 1.8248e-003, 1.7509e-005
159.168,32.69392, 1.8335e-003, 1.9165e-005
159.668,32.80195, 1.8430e-003, 1.9510e-005
160.168,32.90998, 1.8525e-003, 1.7964e-005
160.668,33.01805, 1.8616e-003, 1.7851e-005
161.168,33.12621, 1.8708e-003, 1.8848e-005
161.668,33.23447, 1.8802e-003, 1.7937e-005
162.168,33.34278, 1.8889e-003, 1.9019e-005
162.668,33.45116, 1.8990e-003, 1.8726e-005
163.168,33.55978, 1.9079e-003, 1.8317e-005
163.668,33.66812, 1.9167e-003, 1.8698e-005
164.168,33.77647, 1.9267e-003, 1.8427e-005
164.668,33.88478, 1.9356e-003, 1.8726e-005
165.168,33.99350, 1.9448e-003, 1.8075e-005
165.668,34.10232, 1.9543e-003, 1.8314e-005
166.168,34.21113, 1.9637e-003, 1.9458e-005
166.668,34.31985, 1.9726e-003, 1.8692e-005
167.168,34.42880, 1.9822e-003, 1.8276e-005
167.668,34.53776, 1.9912e-003, 1.8471e-005
168.168,34.64665, 2.0006e-003, 1.7859e-005
168.668,34.75541, 2.0098e-003, 1.9503e-005
169.168,34.86433, 2.0195e-003, 1.7872e-005
169.668,34.97327, 2.0289e-003, 1.9313e-005
170.168,35.08274, 2.0379e-003, 1.8488e-005
170.668,35.19230, 2.0471e-003, 2.0138e-005
171.168,35.30209, 2.0570e-003, 1.7802e-005
171.668,35.41174, 2.0662e-003, 1.8840e-005
172.168,35.52166, 2.0754e-003, 1.9444e-005
172.668,35.63157, 2.0850e-003, 1.8404e-005
173.168,35.74140, 2.0945e-003, 1.9148e-005
173.668,35.85136, 2.1042e-003, 1.9277e-005
174.168,35.96130, 2.1134e-003, 1.8610e-005
174.668,36.07150, 2.1235e-003, 1.9151e-005
175.168,36.18170, 2.1321e-003, 1.8773e-005
175.668,36.29201, 2.1422e-003, 1.9740e-005
176.168,36.40237, 2.1514e-003, 1.9093e-005
176.668,36.51299, 2.1612e-003, 1.8665e-005
177.168,36.62355, 2.1706e-003, 1.9523e-005
177.668,36.73417, 2.1807e-003, 1.9468e-005
178.168,36.84485, 2.1898e-003, 1.8356e-005
178.668,36.95545, 2.1996e-003, 1.9731e-005
179.168,37.06610, 2.2088e-003, 1.8193e-005
179.668,37.17663, 2.2185e-003, 1.9297e-005
180.168,37.28705, 2.2280e-003, 1.8972e-005
180.668,37.39782, 2.2376e-003, 1.8771e-005
181.168,37.50880, 2.2469e-003, 1.8536e-005
181.668,37.61953, 2.2558e-003, 1.8558e-005
182.168,37.73006, 2.2648e-003, 1.9387e-005
182.668,37.84045, 2.2748e-003, 1.8536e-005
183.168,37.95102, 2.2841e-003, 1.9134e-005
183.668,38.06186, 2.2941e-003, 1.8664e-005
184.168,38.17234, 2.3028e-003, 1.9285e-005
184.668,38.28293, 2.3130e-003, 1.9058e-005
185.168,38.39403, 2.3226e-003, 2.0449e-005
185.668,38.50544, 2.3321e-003, 1.8173e-005
186.168,38.61703, 2.3417e-003, 1.8516e-005
186.668,38.72833, 2.3511e-003, 2.0336e-005
187.168,38.83987, 2.3609e-003, 1.8580e-005
187.668,38.95124, 2.3702e-003, 1.8738e-005
188.168,39.06271, 2.3797e-003, 1.9050e-005
188.668,39.17412, 2.3892e-003, 1.9797e-005
189.168,39.28564, 2.3995e-003, 1.8733e-005
189.668,39.39726, 2.4087e-003, 1.9410e-005
190.168,39.50879, 2.4184e-003, 2.0259e-005
190.668,39.62055, 2.4283e-003, 1.8897e-005
191.168,39.73231, 2.4383e-003, 2.0715e-005
191.668,39.84394, 2.4480e-003, 1.9311e-005
192.168,39.95585, 2.4580e-003, 1.9552e-005
192.668,40.06768, 2.4673e-003, 1.9194e-005
193.168,40.17963, 2.4775e-003, 1.9867e-005
193.668,40.29190, 2.4874e-003, 2.0296e-005
194.168,40.40397, 2.4975e-003, 1.9566e-005
194.668,40.51643, 2.5071e-003, 1.9629e-005
195.168,40.62887, 2.5172e-003, 2.0409e-005
195.668,40.74146, 2.5274e-003, 2.0543e-005
196.168,40.85398, 2.5372e-003, 1.9489e-005
196.668,40.96646, 2.5484e-003, 2.1709e-005
197.168,41.07914, 2.5579e-003, 1.9605e-005
197.668,41.19207, 2.5678e-003, 1.8884e-005
198.168,41.30487, 2.5776e-003, 2.0493e-005
198.668,41.41755, 2.5871e-003, 1.9031e-005
199.168,41.53042, 2.5972e-003, 2.1082e-005
199.668,41.64335, 2.6072e-003, 1.9548e-005
200.168,41.75634, 2.6183e-003, 2.0746e-005
200.668,41.86938, 2.6272e-003, 1.9648e-005
201.168,41.98247, 2.6372e-003, 1.9233e-005
201.668,42.09580, 2.6472e-003, 1.9265e-005
202.168,42.20922, 2.6564e-003, 1.8358e-005
202.668,42.32283, 2.6657e-003, 2.0390e-005
203.168,42.43637, 2.6761e-003, 1.9411e-005
203.668,42.55012, 2.6855e-003, 1.9482e-005
204.168,42.66387, 2.6956e-003, 2.0055e-005
204.668,42.77766, 2.7056e-003, 1.9790e-005
205.168,42.89156, 2.7152e-003, 1.9648e-005
205.668,43.00554, 2.7250e-003, 1.9664e-005
206.168,43.11964, 2.7352e-003, 1.9244e-005
206.668,43.23359, 2.7447e-003, 2.0170e-005
207.168,43.34768, 2.7543e-003, 1.8627e-005
207.668,43.46199, 2.7637e-003, 1.9573e-005
208.168,43.57652, 2.7746e-003, 2.0909e-005
208.668,43.69100, 2.7841e-003, 1.8982e-005
209.168,43.80542, 2.7936e-003, 1.9040e-005
209.668,43.92001, 2.8035e-003, 2.0209e-005
210.168,44.03458, 2.8132e-003, 1.9328e-005
210.668,44.14926, 2.8233e-003, 1.9530e-005
211.168,44.26428, 2.8326e-003, 1.8660e-005
211.668,44.37926, 2.8427e-003, 1.9756e-005
212.168,44.49439, 2.8520e-003, 1.8641e-005
212.668,44.60951, 2.8614e-003, 1.9606e-005
213.168,44.72485, 2.8711e-003, 1.9396e-005
213.668,44.84016, 2.8812e-003, 1.9093e-005
214.168,44.95514, 2.8904e-003, 1.9386e-005
214.668,45.07012, 2.9006e-003, 1.9936e-005
215.168,45.18510, 2.9102e-003, 2.0163e-005
215.668,45.30025, 2.9204e-003, 1.8390e-005
216.168,45.41554, 2.9291e-003, 1.8132e-005
216.668,45.53109, 2.9392e-003, 2.0033e-005
217.168,45.64643, 2.9482e-003, 1.8540e-005
217.668,45.76187, 2.9581e-003, 1.9517e-005
218.168,45.87744, 2.9675e-003, 1.8757e-005
218.668,45.99315, 2.9765e-003, 1.8520e-005
219.168,46.10869, 2.9862e-003, 1.8776e-005
219.668,46.22425, 2.9956e-003, 2.0189e-005
220.168,46.34007, 3.0050e-003, 1.7657e-005
220.668,46.45614, 3.0147e-003, 1.9663e-005
221.168,46.57223, 3.0241e-003, 1.8594e-005
221.668,46.68828, 3.0335e-003, 1.9108e-005
222.168,46.80447, 3.0431e-003, 1.9083e-005
222.668,46.92057, 3.0523e-003, 1.9504e-005
223.168,47.03663, 3.0625e-003, 1.9417e-005
223.668,47.15287, 3.0720e-003, 1.9341e-005
224.168,47.26911, 3.0821e-003, 1.9273e-005
224.668,47.38569, 3.0911e-003, 1.9221e-005
225.168,47.50262, 3.1011e-003, 1.9382e-005
225.668,47.61979, 3.1109e-003, 2.1041e-005
226.168,47.73682, 3.1214e-003, 1.9280e-005
226.668,47.85357, 3.1313e-003, 2.0904e-005
227.168,47.97055, 3.1412e-003, 2.0279e-005
227.668,48.08735, 3.1510e-003, 1.9012e-005
228.168,48.20381, 3.1609e-003, 2.0517e-005
228.668,48.32026, 3.1711e-003, 1.9576e-005
229.168,48.43728, 3.1814e-003, 1.9355e-005
229.668,48.55452, 3.1909e-003, 2.0287e-005
230.168,48.67177, 3.2007e-003, 2.0385e-005
230.668,48.78929, 3.2107e-003, 1.8978e-005
231.168,48.90700, 3.2204e-003, 2.0497e-005
231.668,49.02478, 3.2304e-003, 1.9359e-005
232.168,49.14243, 3.2399e-003, 2.0505e-005
232.668,49.26011, 3.2506e-003, 1.9192e-005
233.168,49.37786, 3.2602e-003, 2.1229e-005
233.668,49.49564, 3.2708e-003, 1.9803e-005
234.168,49.61346, 3.2804e-003, 2.0251e-005
234.668,49.73157, 3.2910e-003, 2.0306e-005
235.168,49.84987, 3.3013e-003, 2.0834e-005
235.668,49.96795, 3.3115e-003, 2.0090e-005
236.168,50.08607, 3.3213e-003, 1.9045e-005
236.668,50.20437, 3.3315e-003, 2.0405e-005
237.168,50.32276, 3.3413e-003, 1.9394e-005
237.668,50.44096, 3.3511e-003, 1.9776e-005
238.168,50.55906, 3.3613e-003, 2.0486e-005
238.668,50.67757, 3.3710e-003, 1.9840e-005
239.168,50.79643, 3.3814e-003, 1.9351e-005
239.668,50.91544, 3.3915e-003, 2.1542e-005
240.168,51.03450, 3.4016e-003, 2.0501e-005
240.668,51.15342, 3.4120e-003, 1.9496e-005
241.168,51.27223, 3.4210e-003, 1.9696e-005
241.668,51.39127, 3.4318e-003, 1.9857e-005
242.168,51.51022, 3.4412e-003, 2.0508e-005
242.668,51.62892, 3.4516e-003, 1.9865e-005
243.168,51.74774, 3.4617e-003, 2.0428e-005
243.668,51.86690, 3.4719e-003, 1.9525e-005
244.168,51.98634, 3.4816e-003, 1.9783e-005
244.668,52.10550, 3.4910e-003, 1.9381e-005
245.168,52.22475, 3.5006e-003, 2.0017e-005
245.668,52.34426, 3.5107e-003, 1.9961e-005
246.168,52.46390, 3.5205e-003, 1.9243e-005
246.668,52.58373, 3.5313e-003, 2.0882e-005
247.168,52.70375, 3.5403e-003, 1.8177e-005
247.668,52.82422, 3.5501e-003, 1.9904e-005
248.168,52.94454, 3.5600e-003, 2.0675e-005
248.668,53.06489, 3.5698e-003, 1.9086e-005
249.168,53.18534, 3.5805e-003, 2.0622e-005
249.668,53.30569, 3.5900e-003, 1.8762e-005
250.168,53.42600, 3.5997e-003, 1.9706e-005
250.668,53.54606, 3.6088e-003, 1.8789e-005
251.168,53.66648, 3.6193e-003, 1.9686e-005
251.668,53.78677, 3.6286e-003, 1.9125e-005
252.168,53.90709, 3.6378e-003, 1.8313e-005
252.668,54.02742, 3.6473e-003, 1.9858e-005
253.168,54.14797, 3.6572e-003, 1.9157e-005
253.668,54.26879, 3.6665e-003, 1.8206e-005
254.168,54.38956, 3.6765e-003, 1.9833e-005
254.668,54.51067, 3.6853e-003, 1.9932e-005
255.168,54.63186, 3.6957e-003, 1.9145e-005
255.668,54.75318, 3.7049e-003, 2.0197e-005
256.168,54.87454, 3.7154e-003, 1.9724e-005
256.668,54.99580, 3.7256e-003, 1.9830e-005
257.168,55.11722, 3.7359e-003, 1.9878e-005
257.668,55.23867, 3.7451e-003, 1.9635e-005
258.168,55.36036, 3.7548e-003, 1.9707e-005
258.668,55.48219, 3.7651e-003, 1.9664e-005
259.168,55.60405, 3.7745e-003, 1.9603e-005
259.668,55.72597, 3.7844e-003, 1.9894e-005
260.168,55.84796, 3.7940e-003, 1.8879e-005
260.668,55.96992, 3.8035e-003, 2.0638e-005
261.168,56.09186, 3.8143e-003, 1.9574e-005
261.668,56.21368, 3.8234e-003, 1.8806e-005
262.168,56.33561, 3.8334e-003, 2.0404e-005
262.668,56.45773, 3.8430e-003, 1.9398e-005
263.168,56.57994, 3.8528e-003, 1.9756e-005
263.668,56.70228, 3.8625e-003, 1.8528e-005
264.168,56.82454, 3.8717e-003, 1.8383e-005
264.668,56.94705, 3.8812e-003, 1.9139e-005
265.168,57.06983, 3.8905e-003, 1.8806e-005
265.668,57.19251, 3.8999e-003, 1.8510e-005
266.168,57.31521, 3.9092e-003, 1.8687e-005
266.668,57.43813, 3.9184e-003, 1.8706e-005
267.168,57.56091, 3.9289e-003, 2.0800e-005
267.668,57.68355, 3.9378e-003, 1.8904e-005
268.168,57.80606, 3.9478e-003, 2.0445e-005
268.668,57.92882, 3.9576e-003, 2.0168e-005
269.168,58.05172, 3.9682e-003, 1.9039e-005
269.668,58.17484, 3.9773e-003, 1.9958e-005
270.168,58.29825, 3.9871e-003, 1.9225e-005
270.668,58.42199, 3.9972e-003, 2.1317e-005
271.168,58.54584, 4.0072e-003, 1.9161e-005
271.668,58.66952, 4.0173e-003, 1.9259e-005
272.168,58.79331, 4.0270e-003, 1.9700e-005
272.668,58.91703, 4.0379e-003, 2.1541e-005
273.168,59.04095, 4.0467e-003, 1.8181e-005
273.668,59.16468, 4.0569e-003, 2.1023e-005
274.168,59.28867, 4.0666e-003, 1.9499e-005
274.668,59.41278, 4.0769e-003, 2.0126e-005
275.168,59.53691, 4.0872e-003, 1.9986e-005
275.668,59.66114, 4.0971e-003, 2.0124e-005
276.168,59.78544, 4.1066e-003, 2.0324e-005
276.668,59.90996, 4.1164e-003, 1.9144e-005
277.168,60.03477, 4.1270e-003, 2.0358e-005
277.668,60.15945, 4.1366e-003, 1.8783e-005
278.168,60.28432, 4.1462e-003, 2.0594e-005
278.668,60.40923, 4.1562e-003, 1.8682e-005
279.168,60.53423, 4.1652e-003, 2.0297e-005
279.668,60.65893, 4.1766e-003, 1.9949e-005