File: data_backup/8.1mm/oligHawk001s1r1-7.0mm.csv
#EXPORTTYPE:           ,DATA ALL
#FILE:                 ,oligHawk001sam1.ngb-sle
#FORMAT:               ,NETZSCH5
#FTYPE:                ,ANSI
#IDENTITY:             ,hawkmine 001
#DECIMAL:              ,POINT
#SEPARATOR:            ,COMMA
#MTYPE:                ,DIL
#INSTRUMENT:           ,NETZSCH DIL 402C
#PROJECT:              ,feldspar
#DATE/TIME:            ,8/23/2019 9:50:19 AM (UTC-5)
#CORR. FILE:           ,
#TEMPCAL:              ,TCALZERO.TMX
#LABORATORY:           ,Mineral Physics
#OPERATOR:             ,PAG
#REMARK:               ,bare, norm start, for short plageioclase,hawk mine trapezoid 001 face,short direction
#SAMPLE:               ,oligioclase hawk
#SAMPLE LENGTH /mm:    ,7.035
#MATERIAL:             ,sapphire stnd
#MEASMODE:             ,Standard Expansion
#PURGE GAS 1:          ,ARGON
#FLOW RATE 1 /(ml/min):,75
#M.RANGE /µm:          ,500
#CORR. CODE:           ,010
#RANGE:                ,20.0°C/3.0(K/min)/1020.0°C
#SEGMENT:              ,S1/1
#SEG. 1:               ,20.0°C/3.0(K/min)/1020.0°C

##Temp./°C,Time/min,dL/Lo
  22.08200,  0.00000, 1.9445e-005
  23.08200,  4.65271,-3.4658e-006
  24.08200,  5.11868,-2.4591e-005
  25.08200,  5.46635,-4.3277e-005
  26.08200,  5.75909,-5.8881e-005
  27.08200,  6.02144,-7.2358e-005
  28.08200,  6.26468,-8.4453e-005
  29.08200,  6.49505,-9.4249e-005
  30.08200,  6.71672,-1.0253e-004
  31.08200,  6.93249,-1.0953e-004
  32.08200,  7.14450,-1.1478e-004
  33.08200,  7.35452,-1.1858e-004
  34.08200,  7.56261,-1.2123e-004
  35.08200,  7.76974,-1.2184e-004
  36.08200,  7.97608,-1.2195e-004
  37.08200,  8.18245,-1.2040e-004
  38.08200,  8.38894,-1.1878e-004
  39.08200,  8.59573,-1.1566e-004
  40.08200,  8.80187,-1.1136e-004
  41.08200,  9.00778,-1.0750e-004
  42.08200,  9.21299,-1.0218e-004
  43.08200,  9.41768,-9.7147e-005
  44.08200,  9.62202,-9.1492e-005
  45.08200,  9.82516,-8.5528e-005
  46.08200, 10.02710,-7.9361e-005
  47.08200, 10.22751,-7.2923e-005
  48.08200, 10.42613,-6.6192e-005
  49.08200, 10.62346,-5.9722e-005
  50.08200, 10.81936,-5.2650e-005
  51.08200, 11.01398,-4.4996e-005
  52.08200, 11.20735,-3.8225e-005
  53.08200, 11.39978,-3.0740e-005
  54.08200, 11.59101,-2.2947e-005
  55.08200, 11.78140,-1.5447e-005
  56.08200, 11.97104,-7.0559e-006
  57.08200, 12.15982, 1.4318e-006
  58.08200, 12.34827, 9.9804e-006
  59.08200, 12.53601, 1.9001e-005
  60.08200, 12.72369, 2.7938e-005
  61.08200, 12.91162, 3.7603e-005
  62.08200, 13.09903, 4.7384e-005
  63.08200, 13.28686, 5.6853e-005
  64.08200, 13.47485, 6.7214e-005
  65.08200, 13.66254, 7.7754e-005
  66.08200, 13.85065, 8.8761e-005
  67.08200, 14.03884, 9.9701e-005
  68.08200, 14.22748, 1.1077e-004
  69.08200, 14.41624, 1.2191e-004
  70.08200, 14.60526, 1.3360e-004
  71.08200, 14.79391, 1.4638e-004
  72.08200, 14.98241, 1.5753e-004
  73.08200, 15.17139, 1.6986e-004
  74.08200, 15.36055, 1.8254e-004
  75.08200, 15.55040, 1.9391e-004
  76.08200, 15.74063, 2.0642e-004
  77.08200, 15.93145, 2.1903e-004
  78.08200, 16.12239, 2.3140e-004
  79.08200, 16.31371, 2.4547e-004
  80.08200, 16.50498, 2.5721e-004
  81.08200, 16.69636, 2.7042e-004
  82.08200, 16.88796, 2.8398e-004
  83.08200, 17.08007, 2.9715e-004
  84.08200, 17.27247, 3.0986e-004
  85.08200, 17.46531, 3.2327e-004
  86.08200, 17.65882, 3.3646e-004
  87.08200, 17.85242, 3.4917e-004
  88.08200, 18.04647, 3.6366e-004
  89.08200, 18.24060, 3.7703e-004
  90.08200, 18.43537, 3.9095e-004
  91.08200, 18.63068, 4.0486e-004
  92.08200, 18.82637, 4.1839e-004
  93.08200, 19.02267, 4.3285e-004
  94.08200, 19.21898, 4.4649e-004
  95.08200, 19.41604, 4.6062e-004
  96.08200, 19.61443, 4.7468e-004
  97.08200, 19.81279, 4.8876e-004
  98.08200, 20.01142, 5.0365e-004
  99.08200, 20.21019, 5.1797e-004
 100.082, 20.40870, 5.3229e-004
 101.082, 20.60775, 5.4652e-004
 102.082, 20.80692, 5.6077e-004
 103.082, 21.00636, 5.7548e-004
 104.082, 21.20646, 5.9024e-004
 105.082, 21.40702, 6.0538e-004
 106.082, 21.60755, 6.1934e-004
 107.082, 21.80833, 6.3387e-004
 108.082, 22.00912, 6.4843e-004
 109.082, 22.21018, 6.6375e-004
 110.082, 22.41186, 6.7823e-004
 111.082, 22.61422, 6.9276e-004
 112.082, 22.81747, 7.0705e-004
 113.082, 23.02117, 7.2241e-004
 114.082, 23.22526, 7.3719e-004
 115.082, 23.42952, 7.5151e-004
 116.082, 23.63398, 7.6604e-004
 117.082, 23.83898, 7.8126e-004
 118.082, 24.04435, 7.9551e-004
 119.082, 24.24940, 8.1023e-004
 120.082, 24.45469, 8.2544e-004
 121.082, 24.66014, 8.4015e-004
 122.082, 24.86610, 8.5500e-004
 123.082, 25.07246, 8.6955e-004
 124.082, 25.27930, 8.8471e-004
 125.082, 25.48612, 8.9942e-004
 126.082, 25.69269, 9.1465e-004
 127.082, 25.89936, 9.3014e-004
 128.082, 26.10569, 9.4463e-004
 129.082, 26.31316, 9.6018e-004
 130.082, 26.52089, 9.7503e-004
 131.082, 26.72926, 9.9025e-004
 132.082, 26.93806, 1.0057e-003
 133.082, 27.14744, 1.0212e-003
 134.082, 27.35684, 1.0363e-003
 135.082, 27.56671, 1.0521e-003
 136.082, 27.77611, 1.0672e-003
 137.082, 27.98630, 1.0820e-003
 138.082, 28.19669, 1.0970e-003
 139.082, 28.40750, 1.1124e-003
 140.082, 28.61811, 1.1277e-003
 141.082, 28.82915, 1.1429e-003
 142.082, 29.04031, 1.1583e-003
 143.082, 29.25174, 1.1736e-003
 144.082, 29.46349, 1.1897e-003
 145.082, 29.67552, 1.2046e-003
 146.082, 29.88803, 1.2197e-003
 147.082, 30.10068, 1.2354e-003
 148.082, 30.31340, 1.2502e-003
 149.082, 30.52623, 1.2657e-003
 150.082, 30.73914, 1.2812e-003
 151.082, 30.95192, 1.2965e-003
 152.082, 31.16541, 1.3119e-003
 153.082, 31.37929, 1.3276e-003
 154.082, 31.59381, 1.3420e-003
 155.082, 31.80868, 1.3574e-003
 156.082, 32.02389, 1.3733e-003
 157.082, 32.23946, 1.3891e-003
 158.082, 32.45527, 1.4044e-003
 159.082, 32.67155, 1.4194e-003
 160.082, 32.88832, 1.4355e-003
 161.082, 33.10477, 1.4516e-003
 162.082, 33.32143, 1.4664e-003
 163.082, 33.53785, 1.4821e-003
 164.082, 33.75468, 1.4969e-003
 165.082, 33.97152, 1.5130e-003
 166.082, 34.18842, 1.5283e-003
 167.082, 34.40572, 1.5439e-003
 168.082, 34.62323, 1.5593e-003
 169.082, 34.84105, 1.5746e-003
 170.082, 35.05918, 1.5904e-003
 171.082, 35.27765, 1.6057e-003
 172.082, 35.49654, 1.6207e-003
 173.082, 35.71531, 1.6364e-003
 174.082, 35.93413, 1.6518e-003
 175.082, 36.15342, 1.6674e-003
 176.082, 36.37259, 1.6827e-003
 177.082, 36.59242, 1.6986e-003
 178.082, 36.81219, 1.7140e-003
 179.082, 37.03250, 1.7294e-003
 180.082, 37.25335, 1.7449e-003
 181.082, 37.47450, 1.7602e-003
 182.082, 37.69553, 1.7763e-003
 183.082, 37.91677, 1.7917e-003
 184.082, 38.13826, 1.8070e-003
 185.082, 38.36041, 1.8224e-003
 186.082, 38.58251, 1.8379e-003
 187.082, 38.80479, 1.8534e-003
 188.082, 39.02705, 1.8685e-003
 189.082, 39.24966, 1.8837e-003
 190.082, 39.47288, 1.8992e-003
 191.082, 39.69653, 1.9146e-003
 192.082, 39.92037, 1.9300e-003
 193.082, 40.14416, 1.9445e-003
 194.082, 40.36800, 1.9598e-003
 195.082, 40.59225, 1.9754e-003
 196.082, 40.81683, 1.9912e-003
 197.082, 41.04171, 2.0060e-003
 198.082, 41.26688, 2.0219e-003
 199.082, 41.49246, 2.0376e-003
 200.082, 41.71868, 2.0527e-003
 201.082, 41.94577, 2.0686e-003
 202.082, 42.17315, 2.0839e-003
 203.082, 42.40127, 2.0999e-003
 204.082, 42.62849, 2.1147e-003
 205.082, 42.85631, 2.1305e-003
 206.082, 43.08391, 2.1460e-003
 207.082, 43.31210, 2.1613e-003
 208.082, 43.54024, 2.1770e-003
 209.082, 43.76852, 2.1923e-003
 210.082, 43.99718, 2.2079e-003
 211.082, 44.22615, 2.2225e-003
 212.082, 44.45553, 2.2387e-003
 213.082, 44.68544, 2.2535e-003
 214.082, 44.91541, 2.2691e-003
 215.082, 45.14570, 2.2846e-003
 216.082, 45.37648, 2.3000e-003
 217.082, 45.60790, 2.3152e-003
 218.082, 45.83959, 2.3309e-003
 219.082, 46.07056, 2.3466e-003
 220.082, 46.30162, 2.3619e-003
 221.082, 46.53300, 2.3773e-003
 222.082, 46.76554, 2.3924e-003
 223.082, 46.99832, 2.4083e-003
 224.082, 47.23165, 2.4241e-003
 225.082, 47.46501, 2.4394e-003
 226.082, 47.69885, 2.4552e-003
 227.082, 47.93230, 2.4707e-003
 228.082, 48.16606, 2.4861e-003
 229.082, 48.40012, 2.5014e-003
 230.082, 48.63450, 2.5166e-003
 231.082, 48.86899, 2.5318e-003
 232.082, 49.10375, 2.5474e-003
 233.082, 49.33896, 2.5627e-003
 234.082, 49.57498, 2.5788e-003
 235.082, 49.81097, 2.5940e-003
 236.082, 50.04691, 2.6095e-003
 237.082, 50.28271, 2.6252e-003
 238.082, 50.51886, 2.6406e-003
 239.082, 50.75591, 2.6559e-003
 240.082, 50.99291, 2.6716e-003
 241.082, 51.23093, 2.6873e-003
 242.082, 51.46928, 2.7026e-003
 243.082, 51.70799, 2.7180e-003
 244.082, 51.94626, 2.7334e-003
 245.082, 52.18476, 2.7486e-003
 246.082, 52.42372, 2.7641e-003
 247.082, 52.66315, 2.7794e-003
 248.082, 52.90254, 2.7952e-003
 249.082, 53.14235, 2.8108e-003
 250.082, 53.38243, 2.8259e-003
 251.082, 53.62324, 2.8416e-003
 252.082, 53.86473, 2.8567e-003
 253.082, 54.10690, 2.8719e-003
 254.082, 54.34932, 2.8877e-003
 255.082, 54.59166, 2.9029e-003
 256.082, 54.83419, 2.9181e-003
 257.082, 55.07739, 2.9340e-003
 258.082, 55.32110, 2.9491e-003
 259.082, 55.56508, 2.9646e-003
 260.082, 55.80883, 2.9803e-003
 261.082, 56.05302, 2.9953e-003
 262.082, 56.29764, 3.0110e-003
 263.082, 56.54272, 3.0257e-003
 264.082, 56.78791, 3.0414e-003
 265.082, 57.03407, 3.0571e-003
 266.082, 57.28026, 3.0726e-003
 267.082, 57.52682, 3.0878e-003
 268.082, 57.77235, 3.1035e-003
 269.082, 58.01877, 3.1188e-003
 270.082, 58.26562, 3.1345e-003
 271.082, 58.51372, 3.1493e-003
 272.082, 58.76247, 3.1648e-003
 273.082, 59.01178, 3.1800e-003
 274.082, 59.26049, 3.1954e-003
 275.082, 59.50945, 3.2104e-003
 276.082, 59.75857, 3.2254e-003
 277.082, 60.00843, 3.2412e-003
 278.082, 60.25777, 3.2566e-003
 279.082, 60.50692, 3.2722e-003
 280.082, 60.75635, 3.2872e-003
 281.082, 61.00655, 3.3029e-003
 282.082, 61.25797, 3.3181e-003
 283.082, 61.51006, 3.3331e-003
 284.082, 61.76226, 3.3488e-003
 285.082, 62.01405, 3.3654e-003
 286.082, 62.26604, 3.3807e-003
 287.082, 62.51854, 3.3960e-003
 288.082, 62.77198, 3.4105e-003
 289.082, 63.02547, 3.4263e-003
 290.082, 63.27922, 3.4418e-003
 291.082, 63.53269, 3.4566e-003
 292.082, 63.78629, 3.4722e-003
 293.082, 64.04007, 3.4874e-003
 294.082, 64.29457, 3.5025e-003
 295.082, 64.54978, 3.5177e-003
 296.082, 64.80591, 3.5329e-003
 297.082, 65.06232, 3.5481e-003
 298.082, 65.31859, 3.5640e-003
 299.082, 65.57497, 3.5790e-003
 300.082, 65.83196, 3.5944e-003
 301.082, 66.08943, 3.6110e-003
 302.082, 66.34745, 3.6260e-003
 303.082, 66.60630, 3.6411e-003
 304.082, 66.86575, 3.6562e-003
 305.082, 67.12519, 3.6710e-003
 306.082, 67.38404, 3.6862e-003
 307.082, 67.64216, 3.7015e-003
 308.082, 67.90073, 3.7167e-003
 309.082, 68.16007, 3.7319e-003
 310.082, 68.42001, 3.7475e-003
 311.082, 68.68106, 3.7619e-003
 312.082, 68.94289, 3.7769e-003
 313.082, 69.20455, 3.7923e-003
 314.082, 69.46512, 3.8072e-003
 315.082, 69.72578, 3.8225e-003
 316.082, 69.98741, 3.8380e-003
 317.082, 70.24973, 3.8530e-003
 318.082, 70.51247, 3.8681e-003
 319.082, 70.77627, 3.8830e-003
 320.082, 71.04055, 3.8981e-003
 321.082, 71.30547, 3.9134e-003
 322.082, 71.56953, 3.9289e-003
 323.082, 71.83397, 3.9439e-003
 324.082, 72.09912, 3.9591e-003
 325.082, 72.36466, 3.9745e-003
 326.082, 72.63046, 3.9895e-003
 327.082, 72.89644, 4.0045e-003
 328.082, 73.16316, 4.0204e-003
 329.082, 73.42980, 4.0352e-003
 330.082, 73.69732, 4.0513e-003
 331.082, 73.96518, 4.0672e-003
 332.082, 74.23363, 4.0829e-003
 333.082, 74.50233, 4.0997e-003
 334.082, 74.77245, 4.1157e-003
 335.082, 75.04370, 4.1319e-003
 336.082, 75.31582, 4.1483e-003
 337.082, 75.58876, 4.1648e-003
 338.082, 75.86195, 4.1813e-003
 339.082, 76.13542, 4.1973e-003
 340.082, 76.40877, 4.2131e-003
 341.082, 76.68187, 4.2286e-003
 342.082, 76.95438, 4.2439e-003
 343.082, 77.22580, 4.2587e-003
 344.082, 77.49569, 4.2729e-003
 345.082, 77.76361, 4.2872e-003
 346.082, 78.02944, 4.3011e-003
 347.082, 78.29351, 4.3146e-003
 348.082, 78.55687, 4.3282e-003
 349.082, 78.81903, 4.3417e-003
 350.082, 79.08011, 4.3555e-003
 351.082, 79.34060, 4.3688e-003
 352.082, 79.60132, 4.3826e-003
 353.082, 79.86159, 4.3956e-003
 354.082, 80.12204, 4.4100e-003
 355.082, 80.38283, 4.4237e-003
 356.082, 80.64501, 4.4384e-003
 357.082, 80.90803, 4.4530e-003
 358.082, 81.17259, 4.4676e-003
 359.082, 81.43795, 4.4820e-003
 360.082, 81.70506, 4.4972e-003
 361.082, 81.97292, 4.5116e-003
 362.082, 82.24181, 4.5267e-003
 363.082, 82.51157, 4.5418e-003
 364.082, 82.78214, 4.5568e-003
 365.082, 83.05281, 4.5720e-003
 366.082, 83.32373, 4.5872e-003
 367.082, 83.59606, 4.6016e-003
 368.082, 83.87018, 4.6163e-003
 369.082, 84.14543, 4.6324e-003
 370.082, 84.42111, 4.6474e-003
 371.082, 84.69723, 4.6622e-003
 372.082, 84.97365, 4.6771e-003
 373.082, 85.25031, 4.6926e-003
 374.082, 85.52816, 4.7078e-003
 375.082, 85.80684, 4.7227e-003
 376.082, 86.08687, 4.7377e-003
 377.082, 86.36688, 4.7526e-003
 378.082, 86.64766, 4.7676e-003
 379.082, 86.92973, 4.7828e-003
 380.082, 87.21304, 4.7979e-003
 381.082, 87.49568, 4.8136e-003
 382.082, 87.77852, 4.8287e-003
 383.082, 88.06208, 4.8437e-003
 384.082, 88.34683, 4.8587e-003
 385.082, 88.63171, 4.8735e-003
 386.082, 88.91707, 4.8882e-003
 387.082, 89.20288, 4.9032e-003
 388.082, 89.48907, 4.9187e-003
 389.082, 89.77656, 4.9335e-003
 390.082, 90.06379, 4.9489e-003
 391.082, 90.35101, 4.9643e-003
 392.082, 90.63903, 4.9789e-003
 393.082, 90.92858, 4.9941e-003
 394.082, 91.21768, 5.0090e-003
 395.082, 91.50720, 5.0243e-003
 396.082, 91.79725, 5.0392e-003
 397.082, 92.08819, 5.0542e-003
 398.082, 92.37851, 5.0700e-003
 399.082, 92.66876, 5.0839e-003
 400.082, 92.95931, 5.0987e-003
 401.082, 93.25072, 5.1137e-003
 402.082, 93.54288, 5.1289e-003
 403.082, 93.83611, 5.1429e-003
 404.082, 94.12957, 5.1589e-003
 405.082, 94.42210, 5.1733e-003
 406.082, 94.71400, 5.1886e-003
 407.082, 95.00662, 5.2034e-003
 408.082, 95.30097, 5.2185e-003
 409.082, 95.59529, 5.2327e-003
 410.082, 95.88976, 5.2476e-003
 411.082, 96.18430, 5.2632e-003
 412.082, 96.47898, 5.2779e-003
 413.082, 96.77437, 5.2928e-003
 414.082, 97.07006, 5.3076e-003
 415.082, 97.36608, 5.3219e-003
 416.082, 97.66181, 5.3367e-003
 417.082, 97.95728, 5.3517e-003
 418.082, 98.25284, 5.3664e-003
 419.082, 98.54848, 5.3814e-003
 420.082, 98.84430, 5.3960e-003
 421.082, 99.14050, 5.4106e-003
 422.082, 99.43796, 5.4254e-003
 423.082, 99.73636, 5.4395e-003
 424.082,100.035, 5.4549e-003
 425.082,100.335, 5.4695e-003
 426.082,100.634, 5.4849e-003
 427.082,100.933, 5.4993e-003
 428.082,101.233, 5.5146e-003
 429.082,101.534, 5.5293e-003
 430.082,101.835, 5.5421e-003
 431.082,102.136, 5.5573e-003
 432.082,102.437, 5.5719e-003
 433.082,102.738, 5.5869e-003
 434.082,103.039, 5.6011e-003
 435.082,103.339, 5.6157e-003
 436.082,103.64, 5.6304e-003
 437.082,103.942, 5.6452e-003
 438.082,104.242, 5.6602e-003
 439.082,104.543, 5.6752e-003
 440.082,104.845, 5.6903e-003
 441.082,105.148, 5.7050e-003
 442.082,105.451, 5.7202e-003
 443.082,105.755, 5.7345e-003
 444.082,106.06, 5.7498e-003
 445.082,106.365, 5.7644e-003
 446.082,106.671, 5.7791e-003
 447.082,106.977, 5.7937e-003
 448.082,107.282, 5.8030e-003
 449.082,107.588, 5.8160e-003
 450.082,107.894, 5.8308e-003
 451.082,108.2, 5.8452e-003
 452.082,108.507, 5.8597e-003
 453.082,108.815, 5.8743e-003
 454.082,109.122, 5.8891e-003
 455.082,109.43, 5.9032e-003
 456.082,109.737, 5.9161e-003
 457.082,110.045, 5.9274e-003
 458.082,110.354, 5.9418e-003
 459.082,110.662, 5.9568e-003
 460.082,110.971, 5.9712e-003
 461.082,111.282, 5.9861e-003
 462.082,111.594, 6.0011e-003
 463.082,111.907, 6.0157e-003
 464.082,112.219, 6.0305e-003
 465.082,112.53, 6.0449e-003
 466.082,112.84, 6.0595e-003
 467.082,113.15, 6.0744e-003
 468.082,113.461, 6.0886e-003
 469.082,113.771, 6.1033e-003
 470.082,114.083, 6.1160e-003
 471.082,114.394, 6.1308e-003
 472.082,114.704, 6.1455e-003
 473.082,115.016, 6.1596e-003
 474.082,115.326, 6.1743e-003
 475.082,115.636, 6.1893e-003
 476.082,115.947, 6.2035e-003
 477.082,116.261, 6.2184e-003
 478.082,116.577, 6.2325e-003
 479.082,116.893, 6.2473e-003
 480.082,117.21, 6.2619e-003
 481.082,117.527, 6.2765e-003
 482.082,117.843, 6.2917e-003
 483.082,118.159, 6.3061e-003
 484.082,118.476, 6.3211e-003
 485.082,118.791, 6.3359e-003
 486.082,119.106, 6.3500e-003
 487.082,119.423, 6.3649e-003
 488.082,119.741, 6.3798e-003
 489.082,120.059, 6.3948e-003
 490.082,120.377, 6.4095e-003
 491.082,120.697, 6.4243e-003
 492.082,121.018, 6.4400e-003
 493.082,121.341, 6.4560e-003
 494.082,121.666, 6.4720e-003
 495.082,121.991, 6.4881e-003
 496.082,122.32, 6.5054e-003
 497.082,122.649, 6.5219e-003
 498.082,122.98, 6.5385e-003
 499.082,123.309, 6.5544e-003
 500.082,123.637, 6.5704e-003
 501.082,123.964, 6.5860e-003
 502.082,124.289, 6.6006e-003
 503.082,124.61, 6.6147e-003
 504.082,124.928, 6.6257e-003
 505.082,125.245, 6.6388e-003
 506.082,125.557, 6.6520e-003
 507.082,125.865, 6.6648e-003
 508.082,126.172, 6.6781e-003
 509.082,126.477, 6.6912e-003
 510.082,126.781, 6.7046e-003
 511.082,127.087, 6.7182e-003
 512.082,127.392, 6.7322e-003
 513.082,127.699, 6.7462e-003
 514.082,128.008, 6.7577e-003
 515.082,128.318, 6.7711e-003
 516.082,128.63, 6.7858e-003
 517.082,128.942, 6.8001e-003
 518.082,129.254, 6.8141e-003
 519.082,129.568, 6.8285e-003
 520.082,129.885, 6.8414e-003
 521.082,130.202, 6.8559e-003
 522.082,130.521, 6.8706e-003
 523.082,130.84, 6.8852e-003
 524.082,131.161, 6.8999e-003
 525.082,131.483, 6.9149e-003
 526.082,131.806, 6.9283e-003
 527.082,132.13, 6.9434e-003
 528.082,132.454, 6.9575e-003
 529.082,132.78, 6.9723e-003
 530.082,133.107, 6.9866e-003
 531.082,133.434, 7.0019e-003
 532.082,133.762, 7.0166e-003
 533.082,134.091, 7.0311e-003
 534.082,134.421, 7.0461e-003
 535.082,134.753, 7.0601e-003
 536.082,135.085, 7.0745e-003
 537.082,135.417, 7.0894e-003
 538.082,135.748, 7.1044e-003
 539.082,136.081, 7.1189e-003
 540.082,136.415, 7.1329e-003
 541.082,136.749, 7.1479e-003
 542.082,137.081, 7.1625e-003
 543.082,137.414, 7.1775e-003
 544.082,137.748, 7.1924e-003
 545.082,138.084, 7.2073e-003
 546.082,138.421, 7.2221e-003
 547.082,138.757, 7.2365e-003
 548.082,139.093, 7.2514e-003
 549.082,139.429, 7.2659e-003
 550.082,139.765, 7.2805e-003
 551.082,140.103, 7.2963e-003
 552.082,140.44, 7.3109e-003
 553.082,140.778, 7.3249e-003
 554.082,141.116, 7.3397e-003
 555.082,141.454, 7.3542e-003
 556.082,141.793, 7.3690e-003
 557.082,142.133, 7.3840e-003
 558.082,142.472, 7.3987e-003
 559.082,142.811, 7.4131e-003
 560.082,143.149, 7.4281e-003
 561.082,143.489, 7.4423e-003
 562.082,143.83, 7.4572e-003
 563.082,144.171, 7.4724e-003
 564.082,144.511, 7.4869e-003
 565.082,144.851, 7.5023e-003
 566.082,145.193, 7.5168e-003
 567.082,145.536, 7.5323e-003
 568.082,145.879, 7.5448e-003
 569.082,146.221, 7.5597e-003
 570.082,146.563, 7.5744e-003
 571.082,146.903, 7.5896e-003
 572.082,147.244, 7.6043e-003
 573.082,147.585, 7.6175e-003
 574.082,147.928, 7.6323e-003
 575.082,148.272, 7.6473e-003
 576.082,148.617, 7.6618e-003
 577.082,148.962, 7.6770e-003
 578.082,149.307, 7.6907e-003
 579.082,149.651, 7.7052e-003
 580.082,149.994, 7.7206e-003
 581.082,150.339, 7.7348e-003
 582.082,150.684, 7.7497e-003
 583.082,151.029, 7.7644e-003
 584.082,151.373, 7.7801e-003
 585.082,151.719, 7.7952e-003
 586.082,152.066, 7.8091e-003
 587.082,152.413, 7.8245e-003
 588.082,152.759, 7.8394e-003
 589.082,153.105, 7.8544e-003
 590.082,153.451, 7.8687e-003
 591.082,153.797, 7.8843e-003
 592.082,154.142, 7.8982e-003
 593.082,154.487, 7.9136e-003
 594.082,154.833, 7.9288e-003
 595.082,155.18, 7.9439e-003
 596.082,155.527, 7.9589e-003
 597.082,155.876, 7.9750e-003
 598.082,156.226, 7.9921e-003
 599.082,156.579, 8.0080e-003
 600.082,156.935, 8.0246e-003
 601.082,157.291, 8.0404e-003
 602.082,157.649, 8.0545e-003
 603.082,158.005, 8.0694e-003
 604.082,158.36, 8.0839e-003
 605.082,158.709, 8.0986e-003
 606.082,159.055, 8.1129e-003
 607.082,159.398, 8.1263e-003
 608.082,159.737, 8.1402e-003
 609.082,160.075, 8.1543e-003
 610.082,160.411, 8.1681e-003
 611.082,160.749, 8.1829e-003
 612.082,161.086, 8.1971e-003
 613.082,161.425, 8.2114e-003
 614.082,161.766, 8.2266e-003
 615.082,162.106, 8.2413e-003
 616.082,162.449, 8.2563e-003
 617.082,162.794, 8.2708e-003
 618.082,163.139, 8.2862e-003
 619.082,163.485, 8.3006e-003
 620.082,163.831, 8.3151e-003
 621.082,164.179, 8.3299e-003
 622.082,164.527, 8.3451e-003
 623.082,164.876, 8.3596e-003
 624.082,165.226, 8.3747e-003
 625.082,165.578, 8.3883e-003
 626.082,165.929, 8.4029e-003
 627.082,166.28, 8.4182e-003
 628.082,166.634, 8.4331e-003
 629.082,166.989, 8.4479e-003
 630.082,167.343, 8.4631e-003
 631.082,167.697, 8.4781e-003
 632.082,168.052, 8.4926e-003
 633.082,168.407, 8.5071e-003
 634.082,168.763, 8.5220e-003
 635.082,169.12, 8.5374e-003
 636.082,169.476, 8.5530e-003
 637.082,169.832, 8.5676e-003
 638.082,170.189, 8.5824e-003
 639.082,170.547, 8.5983e-003
 640.082,170.906, 8.6133e-003
 641.082,171.265, 8.6288e-003
 642.082,171.625, 8.6438e-003
 643.082,171.984, 8.6590e-003
 644.082,172.342, 8.6739e-003
 645.082,172.701, 8.6891e-003
 646.082,173.063, 8.7043e-003
 647.082,173.425, 8.7191e-003
 648.082,173.785, 8.7335e-003
 649.082,174.147, 8.7486e-003
 650.082,174.508, 8.7640e-003
 651.082,174.87, 8.7784e-003
 652.082,175.233, 8.7933e-003
 653.082,175.595, 8.8086e-003
 654.082,175.956, 8.8237e-003
 655.082,176.316, 8.8389e-003
 656.082,176.678, 8.8536e-003
 657.082,177.041, 8.8685e-003
 658.082,177.405, 8.8829e-003
 659.082,177.768, 8.8980e-003
 660.082,178.132, 8.9129e-003
 661.082,178.494, 8.9278e-003
 662.082,178.856, 8.9423e-003
 663.082,179.219, 8.9570e-003
 664.082,179.583, 8.9708e-003
 665.082,179.946, 8.9856e-003
 666.082,180.311, 9.0007e-003
 667.082,180.676, 9.0156e-003
 668.082,181.041, 9.0309e-003
 669.082,181.406, 9.0456e-003
 670.082,181.771, 9.0608e-003
 671.082,182.136, 9.0732e-003
 672.082,182.502, 9.0886e-003
 673.082,182.869, 9.1033e-003
 674.082,183.236, 9.1184e-003
 675.082,183.604, 9.1332e-003
 676.082,183.971, 9.1478e-003
 677.082,184.337, 9.1628e-003
 678.082,184.703, 9.1775e-003
 679.082,185.071, 9.1927e-003
 680.082,185.438, 9.2080e-003
 681.082,185.808, 9.2238e-003
 682.082,186.181, 9.2389e-003
 683.082,186.559, 9.2548e-003
 684.082,186.939, 9.2712e-003
 685.082,187.322, 9.2878e-003
 686.082,187.705, 9.3031e-003
 687.082,188.089, 9.3182e-003
 688.082,188.47, 9.3331e-003
 689.082,188.848, 9.3473e-003
 690.082,189.222, 9.3617e-003
 691.082,189.59, 9.3759e-003
 692.082,189.956, 9.3879e-003
 693.082,190.321, 9.4020e-003
 694.082,190.684, 9.4167e-003
 695.082,191.049, 9.4311e-003
 696.082,191.417, 9.4443e-003
 697.082,191.785, 9.4584e-003
 698.082,192.155, 9.4730e-003
 699.082,192.526, 9.4871e-003
 700.082,192.899, 9.5008e-003
 701.082,193.27, 9.5152e-003
 702.082,193.642, 9.5296e-003
 703.082,194.016, 9.5438e-003
 704.082,194.39, 9.5569e-003
 705.082,194.765, 9.5712e-003
 706.082,195.143, 9.5859e-003
 707.082,195.521, 9.5986e-003
 708.082,195.9, 9.6134e-003
 709.082,196.28, 9.6270e-003
 710.082,196.66, 9.6413e-003
 711.082,197.04, 9.6556e-003
 712.082,197.418, 9.6705e-003
 713.082,197.796, 9.6828e-003
 714.082,198.174, 9.6934e-003
 715.082,198.554, 9.7077e-003
 716.082,198.935, 9.7222e-003
 717.082,199.314, 9.7362e-003
 718.082,199.692, 9.7506e-003
 719.082,200.073, 9.7650e-003
 720.082,200.455, 9.7790e-003
 721.082,200.838, 9.7932e-003
 722.082,201.22, 9.8075e-003
 723.082,201.603, 9.8220e-003
 724.082,201.984, 9.8356e-003
 725.082,202.365, 9.8498e-003
 726.082,202.747, 9.8645e-003
 727.082,203.129, 9.8792e-003
 728.082,203.512, 9.8935e-003
 729.082,203.895, 9.9069e-003
 730.082,204.279, 9.9215e-003
 731.082,204.664, 9.9359e-003
 732.082,205.048, 9.9504e-003
 733.082,205.429, 9.9647e-003
 734.082,205.812, 9.9775e-003
 735.082,206.195, 9.9922e-003
 736.082,206.58, 1.0007e-002
 737.082,206.964, 1.0021e-002
 738.082,207.349, 1.0036e-002
 739.082,207.732, 1.0047e-002
 740.082,208.116, 1.0061e-002
 741.082,208.5, 1.0076e-002
 742.082,208.883, 1.0090e-002
 743.082,209.266, 1.0104e-002
 744.082,209.65, 1.0117e-002
 745.082,210.033, 1.0132e-002
 746.082,210.417, 1.0147e-002
 747.082,210.8, 1.0162e-002
 748.082,211.183, 1.0176e-002
 749.082,211.567, 1.0190e-002
 750.082,211.951, 1.0204e-002
 751.082,212.337, 1.0219e-002
 752.082,212.725, 1.0233e-002
 753.082,213.115, 1.0248e-002
 754.082,213.507, 1.0265e-002
 755.082,213.902, 1.0281e-002
 756.082,214.299, 1.0295e-002
 757.082,214.698, 1.0310e-002
 758.082,215.098, 1.0326e-002
 759.082,215.496, 1.0339e-002
 760.082,215.89, 1.0354e-002
 761.082,216.278, 1.0366e-002
 762.082,216.663, 1.0380e-002
 763.082,217.043, 1.0393e-002
 764.082,217.419, 1.0406e-002
 765.082,217.793, 1.0419e-002
 766.082,218.169, 1.0434e-002
 767.082,218.545, 1.0447e-002
 768.082,218.921, 1.0461e-002
 769.082,219.296, 1.0474e-002
 770.082,219.673, 1.0488e-002
 771.082,220.052, 1.0502e-002
 772.082,220.43, 1.0517e-002
 773.082,220.809, 1.0531e-002
 774.082,221.189, 1.0545e-002
 775.082,221.571, 1.0559e-002
 776.082,221.952, 1.0573e-002
 777.082,222.333, 1.0588e-002
 778.082,222.717, 1.0602e-002
 779.082,223.104, 1.0615e-002
 780.082,223.49, 1.0629e-002
 781.082,223.876, 1.0643e-002
 782.082,224.262, 1.0658e-002
 783.082,224.649, 1.0672e-002
 784.082,225.036, 1.0686e-002
 785.082,225.423, 1.0701e-002
 786.082,225.812, 1.0714e-002
 787.082,226.202, 1.0729e-002
 788.082,226.591, 1.0743e-002
 789.082,226.983, 1.0758e-002
 790.082,227.385, 1.0770e-002
 791.082,227.797, 1.0786e-002
 792.082,228.211, 1.0800e-002
 793.082,228.624, 1.0813e-002
 794.082,229.037, 1.0828e-002
 795.082,229.449, 1.0842e-002
 796.082,229.863, 1.0857e-002
 797.082,230.282, 1.0872e-002
 798.082,230.703, 1.0887e-002
 799.082,231.131, 1.0901e-002
 800.082,231.578, 1.0919e-002
 801.082,232.043, 1.0936e-002
 802.082,232.507, 1.0953e-002
 803.082,232.958, 1.0969e-002
 804.082,233.397, 1.0984e-002
 805.082,233.829, 1.0999e-002
 806.082,234.264, 1.1014e-002
 807.082,234.699, 1.1028e-002
 808.082,235.128, 1.1042e-002
 809.082,235.551, 1.1054e-002
 810.082,235.969, 1.1067e-002
 811.082,236.384, 1.1081e-002
 812.082,236.804, 1.1095e-002
 813.082,237.223, 1.1109e-002
 814.082,237.635, 1.1121e-002
 815.082,238.041, 1.1133e-002
 816.082,238.439, 1.1146e-002
 817.082,238.835, 1.1157e-002
 818.082,239.231, 1.1171e-002
 819.082,239.633, 1.1185e-002
 820.082,240.038, 1.1199e-002
 821.082,240.445, 1.1214e-002
 822.082,240.851, 1.1226e-002
 823.082,241.256, 1.1239e-002
 824.082,241.66, 1.1253e-002
 825.082,242.061, 1.1266e-002
 826.082,242.461, 1.1280e-002
 827.082,242.86, 1.1294e-002
 828.082,243.258, 1.1304e-002
 829.082,243.657, 1.1318e-002
 830.082,244.055, 1.1331e-002
 831.082,244.449, 1.1345e-002
 832.082,244.845, 1.1358e-002
 833.082,245.239, 1.1372e-002
 834.082,245.631, 1.1385e-002
 835.082,246.023, 1.1399e-002
 836.082,246.415, 1.1411e-002
 837.082,246.806, 1.1425e-002
 838.082,247.194, 1.1439e-002
 839.082,247.582, 1.1452e-002
 840.082,247.971, 1.1467e-002
 841.082,248.36, 1.1481e-002
 842.082,248.748, 1.1495e-002
 843.082,249.133, 1.1508e-002
 844.082,249.52, 1.1520e-002
 845.082,249.909, 1.1534e-002
 846.082,250.297, 1.1548e-002
 847.082,250.685, 1.1563e-002
 848.082,251.073, 1.1574e-002
 849.082,251.459, 1.1588e-002
 850.082,251.845, 1.1602e-002
 851.082,252.231, 1.1616e-002
 852.082,252.617, 1.1631e-002
 853.082,253.005, 1.1642e-002
 854.082,253.397, 1.1657e-002
 855.082,253.795, 1.1672e-002
 856.082,254.197, 1.1687e-002
 857.082,254.601, 1.1702e-002
 858.082,254.991, 1.1714e-002
 859.082,255.364, 1.1727e-002
 860.082,255.743, 1.1742e-002
 861.082,256.146, 1.1759e-002
 862.082,256.576, 1.1777e-002
 863.082,257.016, 1.1789e-002
 864.082,257.444, 1.1804e-002
 865.082,257.865, 1.1818e-002
 866.082,258.284, 1.1832e-002
 867.082,258.717, 1.1847e-002
 868.082,259.166, 1.1863e-002
 869.082,259.616, 1.1875e-002
 870.082,260.039, 1.1888e-002
 871.082,260.432, 1.1899e-002
 872.082,260.81, 1.1911e-002
 873.082,261.182, 1.1924e-002
 874.082,261.555, 1.1938e-002
 875.082,261.93, 1.1951e-002
 876.082,262.309, 1.1966e-002
 877.082,262.693, 1.1980e-002
 878.082,263.081, 1.1990e-002
 879.082,263.471, 1.2004e-002
 880.082,263.861, 1.2018e-002
 881.082,264.25, 1.2033e-002
 882.082,264.639, 1.2046e-002
 883.082,265.029, 1.2061e-002
 884.082,265.419, 1.2074e-002
 885.082,265.81, 1.2090e-002
 886.082,266.204, 1.2104e-002
 887.082,266.6, 1.2120e-002
 888.082,266.997, 1.2134e-002
 889.082,267.395, 1.2149e-002
 890.082,267.791, 1.2164e-002
 891.082,268.187, 1.2179e-002
 892.082,268.582, 1.2204e-002
 893.082,268.975, 1.2228e-002
 894.082,269.367, 1.2261e-002
 895.082,269.76, 1.2289e-002
 896.082,270.155, 1.2329e-002
 897.082,270.548, 1.2394e-002
 898.082,270.938, 1.2506e-002
 899.082,271.328, 1.2871e-002
 900.082,271.721, 1.3276e-002
 901.082,272.118, 1.3685e-002
 902.082,272.518, 1.4201e-002
 903.082,272.92, 1.4490e-002
 904.082,273.323, 1.4775e-002
 905.082,273.725, 1.5003e-002
 906.082,274.126, 1.5246e-002
 907.082,274.532, 1.5685e-002
 908.082,274.944, 1.6255e-002
 909.082,275.365, 1.6778e-002
 910.082,275.799, 1.7112e-002
 911.082,276.242, 1.7330e-002
 912.082,276.698, 1.7531e-002
 913.082,277.188, 1.7734e-002
 914.082,277.724, 1.7921e-002
 915.082,278.334, 1.8104e-002
 916.082,278.923, 1.8276e-002
 917.082,279.408, 1.8398e-002
 918.082,279.821, 1.8480e-002
 919.082,280.206, 1.8544e-002
 920.082,280.585, 1.8600e-002
 921.082,280.963, 1.8651e-002
 922.082,281.336, 1.8701e-002
 923.082,281.711, 1.8759e-002
 924.082,282.089, 1.8821e-002
 925.082,282.466, 1.8889e-002
 926.082,282.841, 1.8954e-002
 927.082,283.216, 1.9012e-002
 928.082,283.595, 1.9057e-002
 929.082,283.979, 1.9099e-002
 930.082,284.364, 1.9139e-002
 931.082,284.748, 1.9177e-002
 932.082,285.131, 1.9219e-002
 933.082,285.514, 1.9259e-002
 934.082,285.899, 1.9300e-002
 935.082,286.282, 1.9368e-002
 936.082,286.664, 1.9437e-002
 937.082,287.046, 1.9485e-002
 938.082,287.427, 1.9526e-002
 939.082,287.807, 1.9563e-002
 940.082,288.189, 1.9597e-002
 941.082,288.572, 1.9629e-002
 942.082,288.954, 1.9661e-002
 943.082,289.335, 1.9704e-002
 944.082,289.716, 1.9739e-002
 945.082,290.098, 1.9768e-002
 946.082,290.482, 1.9795e-002
 947.082,290.865, 1.9820e-002
 948.082,291.243, 1.9843e-002
 949.082,291.62, 1.9867e-002
 950.082,291.995, 1.9889e-002
 951.082,292.366, 1.9911e-002
 952.082,292.736, 1.9934e-002
 953.082,293.109, 1.9955e-002
 954.082,293.484, 1.9977e-002
 955.082,293.855, 1.9998e-002
 956.082,294.219, 2.0017e-002
 957.082,294.583, 2.0037e-002
 958.082,294.956, 2.0060e-002
 959.082,295.341, 2.0085e-002
 960.082,295.735, 2.0107e-002
 961.082,296.125, 2.0128e-002
 962.082,296.505, 2.0147e-002
 963.082,296.882, 2.0167e-002
 964.082,297.265, 2.0189e-002
 965.082,297.657, 2.0211e-002
 966.082,298.048, 2.0232e-002
 967.082,298.43, 2.0251e-002
 968.082,298.802, 2.0270e-002
 969.082,299.169, 2.0290e-002
 970.082,299.531, 2.0309e-002
 971.082,299.89, 2.0328e-002
 972.082,300.248, 2.0348e-002
 973.082,300.606, 2.0369e-002
 974.082,300.968, 2.0390e-002
 975.082,301.334, 2.0410e-002
 976.082,301.701, 2.0431e-002
 977.082,302.067, 2.0452e-002
 978.082,302.432, 2.0473e-002
 979.082,302.8, 2.0494e-002
 980.082,303.169, 2.0515e-002
 981.082,303.536, 2.0536e-002
 982.082,303.902, 2.0557e-002
 983.082,304.266, 2.0577e-002
 984.082,304.629, 2.0597e-002
 985.082,304.989, 2.0617e-002
 986.082,305.349, 2.0639e-002
 987.082,305.713, 2.0659e-002
 988.082,306.081, 2.0680e-002
 989.082,306.453, 2.0700e-002
 990.082,306.825, 2.0722e-002
 991.082,307.198, 2.0742e-002
 992.082,307.57, 2.0762e-002
 993.082,307.942, 2.0782e-002
 994.082,308.314, 2.0801e-002
 995.082,308.683, 2.0821e-002
 996.082,309.05, 2.0840e-002
 997.082,309.418, 2.0859e-002
 998.082,309.79, 2.0878e-002
 999.082,310.164, 2.0898e-002
1000.08,310.539, 2.0916e-002
1001.08,310.914, 2.0934e-002
1002.08,311.288, 2.0953e-002
1003.08,311.659, 2.0971e-002
1004.08,312.026, 2.0988e-002
1005.08,312.394, 2.1005e-002
1006.08,312.769, 2.1024e-002
1007.08,313.147, 2.1042e-002
1008.08,313.524, 2.1060e-002
1009.08,313.899, 2.1077e-002
1010.08,314.273, 2.1094e-002
1011.08,314.65, 2.1111e-002