File: data_backup/8.1mm/oligHawk001s1r5-7.0mm.csv
#EXPORTTYPE:           ,DATA ALL
#FILE:                 ,oligHawk001s1run5.ngb-sle
#FORMAT:               ,NETZSCH5
#FTYPE:                ,ANSI
#IDENTITY:             ,oligoclase hawk mine
#DECIMAL:              ,POINT
#SEPARATOR:            ,COMMA
#MTYPE:                ,DIL
#INSTRUMENT:           ,NETZSCH DIL 402C
#PROJECT:              ,feldspar
#DATE/TIME:            ,8/27/2019 9:40:21 AM (UTC-5)
#CORR. FILE:           ,
#TEMPCAL:              ,TCALZERO.TMX
#LABORATORY:           ,Mineral Physics
#OPERATOR:             ,PAG
#REMARK:               ,bare, norm start, for short plageioclase, sapphire, run 5 of hawk mine001 shortie
#SAMPLE:               ,hawk 001 run5
#SAMPLE LENGTH /mm:    ,6.991
#MATERIAL:             ,sapphire stnd
#MEASMODE:             ,Standard Expansion
#PURGE GAS 1:          ,ARGON
#FLOW RATE 1 /(ml/min):,75
#M.RANGE /µm:          ,500
#CORR. CODE:           ,010
#RANGE:                ,20.0°C/3.0(K/min)/1010.0°C
#SEGMENT:              ,S1/1
#SEG. 1:               ,20.0°C/3.0(K/min)/1010.0°C

##Temp./°C,Time/min,dL/Lo,Alpha/(1/K)
  22.64300,  0.00000, 2.4370e-005, 1.5240e-005
  23.64300,  4.90025, 8.4982e-007,-2.5873e-005
  24.64300,  5.35767,-2.2187e-005,-1.9836e-005
  25.64300,  5.69977,-4.1634e-005,-1.7640e-005
  26.64300,  5.98796,-5.7785e-005,-1.4439e-005
  27.64300,  6.24564,-7.2726e-005,-1.2803e-005
  28.64300,  6.48416,-8.6120e-005,-1.1924e-005
  29.64300,  6.71054,-9.6696e-005,-9.7747e-006
  30.64300,  6.92755,-1.0528e-004,-7.2631e-006
  31.64300,  7.13814,-1.1182e-004,-6.1722e-006
  32.64300,  7.34400,-1.1733e-004,-4.1331e-006
  33.64300,  7.54656,-1.2148e-004,-2.4107e-006
  34.64300,  7.74780,-1.2426e-004,-2.8955e-006
  35.64300,  7.94816,-1.2485e-004,-9.1876e-007
  36.64300,  8.14874,-1.2534e-004, 4.8928e-007
  37.64300,  8.34940,-1.2446e-004, 8.2427e-007
  38.64300,  8.55006,-1.2310e-004, 2.4925e-006
  39.64300,  8.75166,-1.2030e-004, 3.5657e-006
  40.64300,  8.95341,-1.1628e-004, 4.4973e-006
  41.64300,  9.15520,-1.1191e-004, 3.6598e-006
  42.64300,  9.35684,-1.0803e-004, 4.2183e-006
  43.64300,  9.55803,-1.0227e-004, 6.0153e-006
  44.64300,  9.75880,-9.7061e-005, 6.1000e-006
  45.64300,  9.95876,-9.1058e-005, 6.0706e-006
  46.64300, 10.15786,-8.5493e-005, 5.7375e-006
  47.64300, 10.35563,-7.8801e-005, 6.9699e-006
  48.64300, 10.55218,-7.2400e-005, 5.4144e-006
  49.64300, 10.74712,-6.5295e-005, 5.9254e-006
  50.64300, 10.94085,-5.9427e-005, 6.9898e-006
  51.64300, 11.13324,-5.2160e-005, 7.2329e-006
  52.64300, 11.32416,-4.5238e-005, 7.1557e-006
  53.64300, 11.51448,-3.7613e-005, 7.3007e-006
  54.64300, 11.70380,-2.9818e-005, 7.6946e-006
  55.64300, 11.89245,-2.2405e-005, 7.4144e-006
  56.64300, 12.08076,-1.3861e-005, 8.7049e-006
  57.64300, 12.26838,-6.1439e-006, 7.8027e-006
  58.64300, 12.45521, 2.9034e-006, 8.9779e-006
  59.64300, 12.64155, 1.1928e-005, 9.2805e-006
  60.64300, 12.82750, 2.1204e-005, 8.8396e-006
  61.64300, 13.01289, 3.0676e-005, 8.8299e-006
  62.64300, 13.19857, 3.9981e-005, 1.0112e-005
  63.64300, 13.38404, 5.0251e-005, 1.0408e-005
  64.64300, 13.57015, 6.0430e-005, 1.0436e-005
  65.64300, 13.75662, 7.0940e-005, 9.9716e-006
  66.64300, 13.94318, 8.2049e-005, 1.0901e-005
  67.64300, 14.13050, 9.3412e-005, 1.1476e-005
  68.64300, 14.31720, 1.0511e-004, 1.1216e-005
  69.64300, 14.50433, 1.1619e-004, 1.2191e-005
  70.64300, 14.69195, 1.2859e-004, 1.0671e-005
  71.64300, 14.87991, 1.3987e-004, 1.2580e-005
  72.64300, 15.06870, 1.5219e-004, 1.2857e-005
  73.64300, 15.25812, 1.6465e-004, 1.2401e-005
  74.64300, 15.44827, 1.7776e-004, 1.2522e-005
  75.64300, 15.63846, 1.8990e-004, 1.3042e-005
  76.64300, 15.82811, 2.0370e-004, 1.3255e-005
  77.64300, 16.01831, 2.1694e-004, 1.2926e-005
  78.64300, 16.20881, 2.2932e-004, 1.3356e-005
  79.64300, 16.39993, 2.4141e-004, 1.2610e-005
  80.64300, 16.59202, 2.5546e-004, 1.3686e-005
  81.64300, 16.78357, 2.6859e-004, 1.3475e-005
  82.64300, 16.97613, 2.8244e-004, 1.3926e-005
  83.64300, 17.16908, 2.9634e-004, 1.4244e-005
  84.64300, 17.36282, 3.0997e-004, 1.3001e-005
  85.64300, 17.55692, 3.2359e-004, 1.3988e-005
  86.64300, 17.75134, 3.3733e-004, 1.3839e-005
  87.64300, 17.94638, 3.5103e-004, 1.3405e-005
  88.64300, 18.14174, 3.6530e-004, 1.3625e-005
  89.64300, 18.33715, 3.7921e-004, 1.4403e-005
  90.64300, 18.53286, 3.9309e-004, 1.4237e-005
  91.64300, 18.72860, 4.0715e-004, 1.4106e-005
  92.64300, 18.92495, 4.2116e-004, 1.4393e-005
  93.64300, 19.12163, 4.3534e-004, 1.3650e-005
  94.64300, 19.31881, 4.4943e-004, 1.3967e-005
  95.64300, 19.51615, 4.6438e-004, 1.4133e-005
  96.64300, 19.71397, 4.7829e-004, 1.3486e-005
  97.64300, 19.91233, 4.9310e-004, 1.4214e-005
  98.64300, 20.11148, 5.0643e-004, 1.4270e-005
  99.64300, 20.31186, 5.2116e-004, 1.5041e-005
 100.643, 20.51248, 5.3604e-004, 1.4742e-005
 101.643, 20.71342, 5.5072e-004, 1.5202e-005
 102.643, 20.91410, 5.6542e-004, 1.3766e-005
 103.643, 21.11490, 5.8002e-004, 1.4994e-005
 104.643, 21.31610, 5.9383e-004, 1.4883e-005
 105.643, 21.51782, 6.0916e-004, 1.4377e-005
 106.643, 21.71940, 6.2241e-004, 1.2878e-005
 107.643, 21.92121, 6.3759e-004, 1.4743e-005
 108.643, 22.12333, 6.5225e-004, 1.5038e-005
 109.643, 22.32617, 6.6726e-004, 1.5325e-005
 110.643, 22.52988, 6.8209e-004, 1.4903e-005
 111.643, 22.73398, 6.9760e-004, 1.4833e-005
 112.643, 22.93816, 7.1219e-004, 1.4550e-005
 113.643, 23.14285, 7.2687e-004, 1.4596e-005
 114.643, 23.34784, 7.4143e-004, 1.5227e-005
 115.643, 23.55309, 7.5664e-004, 1.5257e-005
 116.643, 23.75885, 7.7246e-004, 1.5046e-005
 117.643, 23.96479, 7.8721e-004, 1.4657e-005
 118.643, 24.17145, 8.0186e-004, 1.4355e-005
 119.643, 24.37804, 8.1656e-004, 1.5198e-005
 120.643, 24.58467, 8.3122e-004, 1.4173e-005
 121.643, 24.79144, 8.4611e-004, 1.4996e-005
 122.643, 24.99833, 8.6104e-004, 1.5389e-005
 123.643, 25.20552, 8.7651e-004, 1.5289e-005
 124.643, 25.41318, 8.9159e-004, 1.3202e-005
 125.643, 25.62099, 9.0538e-004, 1.5374e-005
 126.643, 25.82929, 9.2074e-004, 1.5114e-005
 127.643, 26.03760, 9.3617e-004, 1.5069e-005
 128.643, 26.24608, 9.5042e-004, 1.4494e-005
 129.643, 26.45503, 9.6552e-004, 1.5054e-005
 130.643, 26.66442, 9.8084e-004, 1.5717e-005
 131.643, 26.87383, 9.9627e-004, 1.5206e-005
 132.643, 27.08331, 1.0105e-003, 1.3686e-005
 133.643, 27.29296, 1.0254e-003, 1.5057e-005
 134.643, 27.50309, 1.0415e-003, 1.5090e-005
 135.643, 27.71378, 1.0564e-003, 1.5138e-005
 136.643, 27.92479, 1.0720e-003, 1.5800e-005
 137.643, 28.13552, 1.0872e-003, 1.5079e-005
 138.643, 28.34658, 1.1026e-003, 1.4600e-005
 139.643, 28.55762, 1.1174e-003, 1.5183e-005
 140.643, 28.76936, 1.1327e-003, 1.5887e-005
 141.643, 28.98075, 1.1487e-003, 1.5557e-005
 142.643, 29.19273, 1.1635e-003, 1.5219e-005
 143.643, 29.40502, 1.1786e-003, 1.5031e-005
 144.643, 29.61792, 1.1947e-003, 1.5339e-005
 145.643, 29.83122, 1.2096e-003, 1.5273e-005
 146.643, 30.04386, 1.2250e-003, 1.5512e-005
 147.643, 30.25750, 1.2401e-003, 1.5225e-005
 148.643, 30.47197, 1.2556e-003, 1.3829e-005
 149.643, 30.68737, 1.2701e-003, 1.5613e-005
 150.643, 30.90293, 1.2856e-003, 1.4849e-005
 151.643, 31.11849, 1.3013e-003, 1.6441e-005
 152.643, 31.33367, 1.3167e-003, 1.5539e-005
 153.643, 31.54885, 1.3326e-003, 1.5992e-005
 154.643, 31.76348, 1.3485e-003, 1.5227e-005
 155.643, 31.97858, 1.3634e-003, 1.4156e-005
 156.643, 32.19452, 1.3780e-003, 1.5595e-005
 157.643, 32.41081, 1.3937e-003, 1.4950e-005
 158.643, 32.62716, 1.4091e-003, 1.5932e-005
 159.643, 32.84315, 1.4252e-003, 1.5885e-005
 160.643, 33.05911, 1.4392e-003, 1.4361e-005
 161.643, 33.27533, 1.4548e-003, 1.5495e-005
 162.643, 33.49156, 1.4705e-003, 1.5011e-005
 163.643, 33.70869, 1.4864e-003, 1.5435e-005
 164.643, 33.92590, 1.5013e-003, 1.3523e-005
 165.643, 34.14399, 1.5164e-003, 1.5554e-005
 166.643, 34.36191, 1.5319e-003, 1.6380e-005
 167.643, 34.57948, 1.5479e-003, 1.5427e-005
 168.643, 34.79673, 1.5635e-003, 1.5822e-005
 169.643, 35.01411, 1.5790e-003, 1.6151e-005
 170.643, 35.23218, 1.5945e-003, 1.4876e-005
 171.643, 35.45077, 1.6091e-003, 1.5703e-005
 172.643, 35.67024, 1.6248e-003, 1.5796e-005
 173.643, 35.88943, 1.6401e-003, 1.5996e-005
 174.643, 36.10914, 1.6564e-003, 1.5705e-005
 175.643, 36.32906, 1.6711e-003, 1.5562e-005
 176.643, 36.54959, 1.6873e-003, 1.5914e-005
 177.643, 36.77019, 1.7032e-003, 1.5809e-005
 178.643, 36.99135, 1.7194e-003, 1.6310e-005
 179.643, 37.21316, 1.7349e-003, 1.2884e-005
 180.643, 37.43554, 1.7491e-003, 1.5612e-005
 181.643, 37.65828, 1.7651e-003, 1.5775e-005
 182.643, 37.88061, 1.7807e-003, 1.5159e-005
 183.643, 38.10304, 1.7960e-003, 1.6003e-005
 184.643, 38.32543, 1.8121e-003, 1.5021e-005
 185.643, 38.54777, 1.8280e-003, 1.6090e-005
 186.643, 38.77057, 1.8435e-003, 1.5734e-005
 187.643, 38.99382, 1.8593e-003, 1.5509e-005
 188.643, 39.21746, 1.8738e-003, 1.5269e-005
 189.643, 39.44116, 1.8891e-003, 1.5223e-005
 190.643, 39.66503, 1.9048e-003, 1.5475e-005
 191.643, 39.88890, 1.9209e-003, 1.6459e-005
 192.643, 40.11279, 1.9366e-003, 1.5971e-005
 193.643, 40.33654, 1.9522e-003, 1.5703e-005
 194.643, 40.56071, 1.9676e-003, 1.5215e-005
 195.643, 40.78548, 1.9819e-003, 1.4058e-005
 196.643, 41.01087, 1.9976e-003, 1.5681e-005
 197.643, 41.23624, 2.0128e-003, 1.5906e-005
 198.643, 41.46219, 2.0291e-003, 1.5223e-005
 199.643, 41.68833, 2.0446e-003, 1.5632e-005
 200.643, 41.91516, 2.0602e-003, 1.5815e-005
 201.643, 42.14230, 2.0753e-003, 1.5122e-005
 202.643, 42.36963, 2.0912e-003, 1.5953e-005
 203.643, 42.59737, 2.1070e-003, 1.5825e-005
 204.643, 42.82516, 2.1228e-003, 1.5492e-005
 205.643, 43.05309, 2.1384e-003, 1.5964e-005
 206.643, 43.28105, 2.1547e-003, 1.5271e-005
 207.643, 43.50959, 2.1695e-003, 1.4757e-005
 208.643, 43.73846, 2.1848e-003, 1.5856e-005
 209.643, 43.96744, 2.1997e-003, 1.5792e-005
 210.643, 44.19609, 2.2159e-003, 1.6197e-005
 211.643, 44.42475, 2.2321e-003, 1.5447e-005
 212.643, 44.65408, 2.2468e-003, 1.5887e-005
 213.643, 44.88463, 2.2632e-003, 1.5581e-005
 214.643, 45.11527, 2.2783e-003, 1.5502e-005
 215.643, 45.34628, 2.2940e-003, 1.5949e-005
 216.643, 45.57680, 2.3095e-003, 1.4852e-005
 217.643, 45.80764, 2.3252e-003, 1.5249e-005
 218.643, 46.03934, 2.3400e-003, 1.5195e-005
 219.643, 46.27132, 2.3554e-003, 1.5256e-005
 220.643, 46.50380, 2.3714e-003, 1.4904e-005
 221.643, 46.73612, 2.3870e-003, 1.4018e-005
 222.643, 46.96868, 2.4011e-003, 1.5331e-005
 223.643, 47.20126, 2.4174e-003, 1.6104e-005
 224.643, 47.43426, 2.4330e-003, 1.5706e-005
 225.643, 47.66760, 2.4485e-003, 1.6013e-005
 226.643, 47.90168, 2.4637e-003, 1.5454e-005
 227.643, 48.13597, 2.4792e-003, 1.6173e-005
 228.643, 48.37081, 2.4947e-003, 1.5716e-005
 229.643, 48.60604, 2.5105e-003, 1.5630e-005
 230.643, 48.84167, 2.5261e-003, 1.5451e-005
 231.643, 49.07731, 2.5416e-003, 1.6094e-005
 232.643, 49.31330, 2.5567e-003, 1.5762e-005
 233.643, 49.54897, 2.5731e-003, 1.5997e-005
 234.643, 49.78545, 2.5884e-003, 1.5873e-005
 235.643, 50.02226, 2.6042e-003, 1.5621e-005
 236.643, 50.25996, 2.6194e-003, 1.4843e-005
 237.643, 50.49743, 2.6347e-003, 1.5293e-005
 238.643, 50.73503, 2.6507e-003, 1.5679e-005
 239.643, 50.97287, 2.6663e-003, 1.5844e-005
 240.643, 51.21116, 2.6820e-003, 1.5912e-005
 241.643, 51.44964, 2.6967e-003, 1.5409e-005
 242.643, 51.68834, 2.7121e-003, 1.5215e-005
 243.643, 51.92723, 2.7275e-003, 1.5661e-005
 244.643, 52.16649, 2.7433e-003, 1.5679e-005
 245.643, 52.40599, 2.7593e-003, 1.5509e-005
 246.643, 52.64556, 2.7752e-003, 1.5403e-005
 247.643, 52.88542, 2.7905e-003, 1.5291e-005
 248.643, 53.12585, 2.8055e-003, 1.5963e-005
 249.643, 53.36674, 2.8210e-003, 1.5760e-005
 250.643, 53.60782, 2.8372e-003, 1.5568e-005
 251.643, 53.84852, 2.8528e-003, 1.3667e-005
 252.643, 54.08966, 2.8676e-003, 1.5076e-005
 253.643, 54.33100, 2.8831e-003, 1.5721e-005
 254.643, 54.57305, 2.8990e-003, 1.5894e-005
 255.643, 54.81556, 2.9146e-003, 1.5899e-005
 256.643, 55.05884, 2.9300e-003, 1.5218e-005
 257.643, 55.30261, 2.9455e-003, 1.5138e-005
 258.643, 55.54673, 2.9604e-003, 1.5123e-005
 259.643, 55.79163, 2.9765e-003, 1.5941e-005
 260.643, 56.03701, 2.9915e-003, 1.4788e-005
 261.643, 56.28239, 3.0075e-003, 1.5277e-005
 262.643, 56.52694, 3.0225e-003, 1.6111e-005
 263.643, 56.77169, 3.0376e-003, 1.5597e-005
 264.643, 57.01667, 3.0536e-003, 1.5242e-005
 265.643, 57.26285, 3.0686e-003, 1.5675e-005
 266.643, 57.50909, 3.0842e-003, 1.5874e-005
 267.643, 57.75486, 3.1003e-003, 1.5711e-005
 268.643, 58.00054, 3.1153e-003, 1.4732e-005
 269.643, 58.24657, 3.1308e-003, 1.5771e-005
 270.643, 58.49370, 3.1471e-003, 1.5555e-005
 271.643, 58.74144, 3.1621e-003, 1.5203e-005
 272.643, 58.98999, 3.1779e-003, 1.6111e-005
 273.643, 59.23883, 3.1934e-003, 1.5759e-005
 274.643, 59.48781, 3.2092e-003, 1.5448e-005
 275.643, 59.73611, 3.2249e-003, 1.4661e-005
 276.643, 59.98458, 3.2392e-003, 1.4760e-005
 277.643, 60.23325, 3.2547e-003, 1.5733e-005
 278.643, 60.48289, 3.2708e-003, 1.6102e-005
 279.643, 60.73308, 3.2861e-003, 1.5720e-005
 280.643, 60.98398, 3.3017e-003, 1.5892e-005
 281.643, 61.23520, 3.3168e-003, 1.3763e-005
 282.643, 61.48666, 3.3315e-003, 1.5102e-005
 283.643, 61.73812, 3.3467e-003, 1.5717e-005
 284.643, 61.99014, 3.3622e-003, 1.6467e-005
 285.643, 62.24249, 3.3781e-003, 1.5684e-005
 286.643, 62.49552, 3.3932e-003, 1.4318e-005
 287.643, 62.74855, 3.4089e-003, 1.6222e-005
 288.643, 63.00219, 3.4250e-003, 1.5122e-005
 289.643, 63.25566, 3.4397e-003, 1.5802e-005
 290.643, 63.50917, 3.4553e-003, 1.5140e-005
 291.643, 63.76320, 3.4708e-003, 1.5499e-005
 292.643, 64.01791, 3.4857e-003, 1.5525e-005
 293.643, 64.27344, 3.5016e-003, 1.5322e-005
 294.643, 64.52918, 3.5169e-003, 1.6066e-005
 295.643, 64.78498, 3.5322e-003, 1.5399e-005
 296.643, 65.04078, 3.5480e-003, 1.5649e-005
 297.643, 65.29691, 3.5636e-003, 1.6086e-005
 298.643, 65.55314, 3.5786e-003, 1.5043e-005
 299.643, 65.80978, 3.5936e-003, 1.3673e-005
 300.643, 66.06620, 3.6090e-003, 1.4999e-005
 301.643, 66.32323, 3.6241e-003, 1.5354e-005
 302.643, 66.58092, 3.6397e-003, 1.4833e-005
 303.643, 66.83914, 3.6552e-003, 1.5493e-005
 304.643, 67.09763, 3.6701e-003, 1.5733e-005
 305.643, 67.35635, 3.6860e-003, 1.6023e-005
 306.643, 67.61549, 3.7018e-003, 1.4983e-005
 307.643, 67.87566, 3.7165e-003, 1.4346e-005
 308.643, 68.13549, 3.7316e-003, 1.6390e-005
 309.643, 68.39622, 3.7473e-003, 1.5317e-005
 310.643, 68.65683, 3.7630e-003, 1.4859e-005
 311.643, 68.91777, 3.7783e-003, 1.5063e-005
 312.643, 69.17872, 3.7931e-003, 1.5515e-005
 313.643, 69.44102, 3.8089e-003, 1.4599e-005
 314.643, 69.70331, 3.8244e-003, 1.4699e-005
 315.643, 69.96568, 3.8396e-003, 1.5180e-005
 316.643, 70.22815, 3.8556e-003, 1.6036e-005
 317.643, 70.49079, 3.8703e-003, 1.4620e-005
 318.643, 70.75355, 3.8855e-003, 1.5411e-005
 319.643, 71.01681, 3.9011e-003, 1.4787e-005
 320.643, 71.28092, 3.9162e-003, 1.5364e-005
 321.643, 71.54585, 3.9317e-003, 1.5111e-005
 322.643, 71.81107, 3.9471e-003, 1.5664e-005
 323.643, 72.07558, 3.9627e-003, 1.5699e-005
 324.643, 72.34087, 3.9781e-003, 1.5425e-005
 325.643, 72.60729, 3.9928e-003, 1.4738e-005
 326.643, 72.87425, 4.0081e-003, 1.5015e-005
 327.643, 73.14103, 4.0232e-003, 1.4718e-005
 328.643, 73.40865, 4.0384e-003, 1.4830e-005
 329.643, 73.67635, 4.0536e-003, 1.4809e-005
 330.643, 73.94375, 4.0686e-003, 1.5063e-005
 331.643, 74.21202, 4.0843e-003, 1.5636e-005
 332.643, 74.48066, 4.0990e-003, 1.5983e-005
 333.643, 74.74910, 4.1151e-003, 1.5184e-005
 334.643, 75.01630, 4.1302e-003, 1.5491e-005
 335.643, 75.28348, 4.1450e-003, 1.5665e-005
 336.643, 75.55205, 4.1607e-003, 1.5882e-005
 337.643, 75.82156, 4.1757e-003, 1.5224e-005
 338.643, 76.09177, 4.1907e-003, 1.5687e-005
 339.643, 76.36245, 4.2068e-003, 1.5467e-005
 340.643, 76.63281, 4.2210e-003, 1.3911e-005
 341.643, 76.90306, 4.2363e-003, 1.4277e-005
 342.643, 77.17339, 4.2511e-003, 1.5995e-005
 343.643, 77.44417, 4.2669e-003, 1.4742e-005
 344.643, 77.71603, 4.2822e-003, 1.4575e-005
 345.643, 77.98815, 4.2975e-003, 1.5863e-005
 346.643, 78.26097, 4.3128e-003, 1.5207e-005
 347.643, 78.53383, 4.3280e-003, 1.5748e-005
 348.643, 78.80703, 4.3431e-003, 1.5433e-005
 349.643, 79.08088, 4.3583e-003, 1.5282e-005
 350.643, 79.35538, 4.3743e-003, 1.6012e-005
 351.643, 79.63032, 4.3896e-003, 1.5839e-005
 352.643, 79.90522, 4.4055e-003, 1.6541e-005
 353.643, 80.18022, 4.4216e-003, 1.6133e-005
 354.643, 80.45641, 4.4381e-003, 1.6447e-005
 355.643, 80.73418, 4.4550e-003, 1.6598e-005
 356.643, 81.01315, 4.4709e-003, 1.7003e-005
 357.643, 81.29381, 4.4874e-003, 1.6752e-005
 358.643, 81.57551, 4.5037e-003, 1.6285e-005
 359.643, 81.85754, 4.5200e-003, 1.6137e-005
 360.643, 82.13886, 4.5360e-003, 1.5442e-005
 361.643, 82.41965, 4.5519e-003, 1.4918e-005
 362.643, 82.69950, 4.5676e-003, 1.4953e-005
 363.643, 82.97820, 4.5824e-003, 1.5013e-005
 364.643, 83.25592, 4.5970e-003, 1.5370e-005
 365.643, 83.53165, 4.6107e-003, 1.3620e-005
 366.643, 83.80599, 4.6249e-003, 1.3250e-005
 367.643, 84.07851, 4.6387e-003, 1.3168e-005
 368.643, 84.34915, 4.6522e-003, 1.3332e-005
 369.643, 84.61751, 4.6652e-003, 1.3855e-005
 370.643, 84.88478, 4.6791e-003, 1.3023e-005
 371.643, 85.15073, 4.6928e-003, 1.3679e-005
 372.643, 85.41647, 4.7061e-003, 1.3778e-005
 373.643, 85.68242, 4.7198e-003, 1.4064e-005
 374.643, 85.94916, 4.7341e-003, 1.4272e-005
 375.643, 86.21675, 4.7487e-003, 1.3821e-005
 376.643, 86.48540, 4.7630e-003, 1.4769e-005
 377.643, 86.75516, 4.7776e-003, 1.4886e-005
 378.643, 87.02600, 4.7924e-003, 1.4521e-005
 379.643, 87.29800, 4.8075e-003, 1.4320e-005
 380.643, 87.57126, 4.8225e-003, 1.5383e-005
 381.643, 87.84547, 4.8375e-003, 1.4726e-005
 382.643, 88.12083, 4.8523e-003, 1.4677e-005
 383.643, 88.39696, 4.8669e-003, 1.4505e-005
 384.643, 88.67440, 4.8818e-003, 1.4223e-005
 385.643, 88.95263, 4.8969e-003, 1.4790e-005
 386.643, 89.23178, 4.9120e-003, 1.5685e-005
 387.643, 89.51171, 4.9274e-003, 1.4773e-005
 388.643, 89.79228, 4.9413e-003, 1.5141e-005
 389.643, 90.07403, 4.9575e-003, 1.4880e-005
 390.643, 90.35599, 4.9721e-003, 1.5459e-005
 391.643, 90.63891, 4.9870e-003, 1.4517e-005
 392.643, 90.92294, 5.0026e-003, 1.4622e-005
 393.643, 91.20761, 5.0179e-003, 1.4981e-005
 394.643, 91.49271, 5.0327e-003, 1.5085e-005
 395.643, 91.77877, 5.0476e-003, 1.4786e-005
 396.643, 92.06516, 5.0627e-003, 1.5101e-005
 397.643, 92.35220, 5.0777e-003, 1.4648e-005
 398.643, 92.64037, 5.0934e-003, 1.5115e-005
 399.643, 92.92893, 5.1083e-003, 1.5032e-005
 400.643, 93.21821, 5.1236e-003, 1.5062e-005
 401.643, 93.50893, 5.1387e-003, 1.5537e-005
 402.643, 93.80028, 5.1537e-003, 1.4645e-005
 403.643, 94.09148, 5.1686e-003, 1.4645e-005
 404.643, 94.38335, 5.1837e-003, 1.5004e-005
 405.643, 94.67582, 5.1985e-003, 1.5611e-005
 406.643, 94.96925, 5.2134e-003, 1.4525e-005
 407.643, 95.26274, 5.2282e-003, 1.5066e-005
 408.643, 95.55710, 5.2437e-003, 1.5372e-005
 409.643, 95.85133, 5.2588e-003, 1.5465e-005
 410.643, 96.14564, 5.2735e-003, 1.5011e-005
 411.643, 96.43924, 5.2884e-003, 1.5594e-005
 412.643, 96.73372, 5.3033e-003, 1.4522e-005
 413.643, 97.02870, 5.3180e-003, 1.4978e-005
 414.643, 97.32342, 5.3330e-003, 1.4472e-005
 415.643, 97.61852, 5.3473e-003, 1.4647e-005
 416.643, 97.91531, 5.3623e-003, 1.5308e-005
 417.643, 98.21229, 5.3778e-003, 1.5565e-005
 418.643, 98.50827, 5.3919e-003, 1.4381e-005
 419.643, 98.80435, 5.4071e-003, 1.4647e-005
 420.643, 99.10131, 5.4217e-003, 1.5559e-005
 421.643, 99.39980, 5.4368e-003, 1.5253e-005
 422.643, 99.69825, 5.4517e-003, 1.5415e-005
 423.643, 99.99647, 5.4664e-003, 1.4779e-005
 424.643,100.295, 5.4809e-003, 1.4492e-005
 425.643,100.594, 5.4967e-003, 1.5406e-005
 426.643,100.894, 5.5116e-003, 1.4750e-005
 427.643,101.194, 5.5267e-003, 1.5228e-005
 428.643,101.494, 5.5417e-003, 1.3886e-005
 429.643,101.796, 5.5562e-003, 1.4204e-005
 430.643,102.098, 5.5711e-003, 1.5152e-005
 431.643,102.399, 5.5860e-003, 1.5100e-005
 432.643,102.701, 5.6013e-003, 1.5308e-005
 433.643,103.002, 5.6160e-003, 1.4542e-005
 434.643,103.303, 5.6307e-003, 1.3280e-005
 435.643,103.605, 5.6457e-003, 1.4672e-005
 436.643,103.907, 5.6607e-003, 1.4650e-005
 437.643,104.208, 5.6748e-003, 1.4999e-005
 438.643,104.51, 5.6892e-003, 1.4873e-005
 439.643,104.813, 5.7041e-003, 1.4931e-005
 440.643,105.116, 5.7191e-003, 1.4605e-005
 441.643,105.42, 5.7344e-003, 1.5765e-005
 442.643,105.724, 5.7486e-003, 1.5759e-005
 443.643,106.028, 5.7639e-003, 1.4100e-005
 444.643,106.334, 5.7788e-003, 1.4685e-005
 445.643,106.638, 5.7937e-003, 1.4495e-005
 446.643,106.943, 5.8082e-003, 1.4678e-005
 447.643,107.249, 5.8232e-003, 1.5788e-005
 448.643,107.555, 5.8380e-003, 1.4912e-005
 449.643,107.86, 5.8527e-003, 1.3401e-005
 450.643,108.167, 5.8678e-003, 1.4398e-005
 451.643,108.475, 5.8823e-003, 1.4762e-005
 452.643,108.782, 5.8973e-003, 1.4257e-005
 453.643,109.089, 5.9117e-003, 1.4467e-005
 454.643,109.397, 5.9261e-003, 1.5047e-005
 455.643,109.705, 5.9410e-003, 1.4260e-005
 456.643,110.013, 5.9561e-003, 1.5384e-005
 457.643,110.321, 5.9711e-003, 1.6114e-005
 458.643,110.629, 5.9865e-003, 1.5104e-005
 459.643,110.938, 6.0024e-003, 1.5610e-005
 460.643,111.248, 6.0182e-003, 1.6454e-005
 461.643,111.561, 6.0344e-003, 1.6033e-005
 462.643,111.876, 6.0507e-003, 1.6254e-005
 463.643,112.193, 6.0673e-003, 1.6273e-005
 464.643,112.511, 6.0829e-003, 1.5134e-005
 465.643,112.829, 6.0989e-003, 1.4808e-005
 466.643,113.146, 6.1141e-003, 1.5755e-005
 467.643,113.462, 6.1290e-003, 1.4868e-005
 468.643,113.775, 6.1430e-003, 1.3504e-005
 469.643,114.085, 6.1567e-003, 1.3756e-005
 470.643,114.394, 6.1705e-003, 1.3344e-005
 471.643,114.699, 6.1835e-003, 1.3008e-005
 472.643,115.002, 6.1975e-003, 1.2585e-005
 473.643,115.304, 6.2102e-003, 1.3358e-005
 474.643,115.604, 6.2240e-003, 1.3717e-005
 475.643,115.904, 6.2369e-003, 1.3466e-005
 476.643,116.205, 6.2508e-003, 1.3984e-005
 477.643,116.505, 6.2649e-003, 1.4085e-005
 478.643,116.806, 6.2787e-003, 1.4161e-005
 479.643,117.109, 6.2931e-003, 1.3433e-005
 480.643,117.412, 6.3067e-003, 1.3996e-005
 481.643,117.716, 6.3207e-003, 1.5119e-005
 482.643,118.021, 6.3360e-003, 1.3912e-005
 483.643,118.327, 6.3499e-003, 1.3965e-005
 484.643,118.633, 6.3645e-003, 1.4955e-005
 485.643,118.942, 6.3785e-003, 1.3563e-005
 486.643,119.252, 6.3930e-003, 1.4062e-005
 487.643,119.562, 6.4072e-003, 1.3487e-005
 488.643,119.873, 6.4220e-003, 1.4204e-005
 489.643,120.185, 6.4369e-003, 1.3580e-005
 490.643,120.499, 6.4514e-003, 1.4612e-005
 491.643,120.813, 6.4660e-003, 1.3879e-005
 492.643,121.129, 6.4804e-003, 1.4402e-005
 493.643,121.446, 6.4949e-003, 1.4018e-005
 494.643,121.764, 6.5097e-003, 1.5048e-005
 495.643,122.083, 6.5243e-003, 1.3665e-005
 496.643,122.4, 6.5384e-003, 1.4664e-005
 497.643,122.717, 6.5531e-003, 1.5440e-005
 498.643,123.036, 6.5682e-003, 1.4085e-005
 499.643,123.355, 6.5822e-003, 1.4342e-005
 500.643,123.676, 6.5964e-003, 1.3139e-005
 501.643,123.997, 6.6107e-003, 1.5288e-005
 502.643,124.319, 6.6251e-003, 1.4019e-005
 503.643,124.641, 6.6402e-003, 1.5031e-005
 504.643,124.963, 6.6547e-003, 1.4194e-005
 505.643,125.287, 6.6694e-003, 1.4144e-005
 506.643,125.612, 6.6842e-003, 1.4842e-005
 507.643,125.937, 6.6984e-003, 1.4302e-005
 508.643,126.262, 6.7132e-003, 1.4255e-005
 509.643,126.587, 6.7270e-003, 1.4612e-005
 510.643,126.913, 6.7418e-003, 1.5210e-005
 511.643,127.238, 6.7560e-003, 1.3719e-005
 512.643,127.564, 6.7703e-003, 1.5016e-005
 513.643,127.888, 6.7848e-003, 1.3895e-005
 514.643,128.213, 6.7991e-003, 1.4617e-005
 515.643,128.539, 6.8141e-003, 1.3947e-005
 516.643,128.868, 6.8284e-003, 1.4564e-005
 517.643,129.196, 6.8435e-003, 1.4025e-005
 518.643,129.525, 6.8577e-003, 1.5218e-005
 519.643,129.853, 6.8723e-003, 1.5054e-005
 520.643,130.181, 6.8872e-003, 1.4968e-005
 521.643,130.51, 6.9019e-003, 1.4205e-005
 522.643,130.84, 6.9164e-003, 1.5068e-005
 523.643,131.17, 6.9305e-003, 1.3986e-005
 524.643,131.499, 6.9451e-003, 1.3769e-005
 525.643,131.827, 6.9597e-003, 1.6101e-005
 526.643,132.154, 6.9738e-003, 1.5002e-005
 527.643,132.482, 6.9885e-003, 1.3743e-005
 528.643,132.812, 7.0035e-003, 1.5241e-005
 529.643,133.142, 7.0180e-003, 1.4419e-005
 530.643,133.471, 7.0325e-003, 1.3911e-005
 531.643,133.799, 7.0478e-003, 1.4162e-005
 532.643,134.128, 7.0614e-003, 1.3851e-005
 533.643,134.459, 7.0762e-003, 1.5099e-005
 534.643,134.791, 7.0906e-003, 1.5520e-005
 535.643,135.122, 7.1058e-003, 1.5717e-005
 536.643,135.453, 7.1205e-003, 1.5478e-005
 537.643,135.784, 7.1354e-003, 1.4731e-005
 538.643,136.117, 7.1494e-003, 1.4854e-005
 539.643,136.45, 7.1644e-003, 1.3805e-005
 540.643,136.781, 7.1784e-003, 1.4602e-005
 541.643,137.112, 7.1932e-003, 1.5680e-005
 542.643,137.444, 7.2075e-003, 1.5045e-005
 543.643,137.776, 7.2225e-003, 1.5269e-005
 544.643,138.108, 7.2369e-003, 1.4863e-005
 545.643,138.442, 7.2513e-003, 1.5171e-005
 546.643,138.776, 7.2664e-003, 1.4354e-005
 547.643,139.111, 7.2813e-003, 1.4386e-005
 548.643,139.447, 7.2953e-003, 1.4036e-005
 549.643,139.783, 7.3101e-003, 1.5293e-005
 550.643,140.119, 7.3240e-003, 1.4544e-005
 551.643,140.456, 7.3385e-003, 1.4657e-005
 552.643,140.791, 7.3535e-003, 1.4739e-005
 553.643,141.126, 7.3676e-003, 1.5633e-005
 554.643,141.462, 7.3825e-003, 1.2978e-005
 555.643,141.797, 7.3967e-003, 1.4993e-005
 556.643,142.132, 7.4108e-003, 1.6413e-005
 557.643,142.467, 7.4259e-003, 1.5847e-005
 558.643,142.804, 7.4403e-003, 1.4558e-005
 559.643,143.14, 7.4555e-003, 1.5131e-005
 560.643,143.477, 7.4696e-003, 1.3716e-005
 561.643,143.814, 7.4848e-003, 1.3780e-005
 562.643,144.151, 7.4990e-003, 1.3990e-005
 563.643,144.49, 7.5139e-003, 1.4473e-005
 564.643,144.828, 7.5283e-003, 1.3585e-005
 565.643,145.168, 7.5428e-003, 1.3681e-005
 566.643,145.508, 7.5575e-003, 1.4305e-005
 567.643,145.847, 7.5719e-003, 1.5310e-005
 568.643,146.187, 7.5868e-003, 1.4134e-005
 569.643,146.527, 7.6008e-003, 1.4641e-005
 570.643,146.867, 7.6159e-003, 1.5086e-005
 571.643,147.209, 7.6304e-003, 1.4482e-005
 572.643,147.551, 7.6455e-003, 1.4887e-005
 573.643,147.893, 7.6597e-003, 1.5078e-005
 574.643,148.235, 7.6740e-003, 1.4905e-005
 575.643,148.577, 7.6892e-003, 1.5547e-005
 576.643,148.919, 7.7038e-003, 1.5962e-005
 577.643,149.263, 7.7194e-003, 1.5323e-005
 578.643,149.608, 7.7355e-003, 1.6328e-005
 579.643,149.956, 7.7517e-003, 1.6431e-005
 580.643,150.306, 7.7676e-003, 1.5524e-005
 581.643,150.657, 7.7841e-003, 1.6009e-005
 582.643,151.011, 7.8001e-003, 1.5945e-005
 583.643,151.364, 7.8157e-003, 1.5540e-005
 584.643,151.716, 7.8310e-003, 1.3851e-005
 585.643,152.064, 7.8444e-003, 1.3864e-005
 586.643,152.408, 7.8591e-003, 1.3148e-005
 587.643,152.75, 7.8723e-003, 1.3465e-005
 588.643,153.088, 7.8863e-003, 1.3306e-005
 589.643,153.424, 7.8997e-003, 1.3920e-005
 590.643,153.756, 7.9129e-003, 1.3462e-005
 591.643,154.088, 7.9267e-003, 1.3838e-005
 592.643,154.419, 7.9401e-003, 1.3782e-005
 593.643,154.752, 7.9542e-003, 1.4082e-005
 594.643,155.086, 7.9685e-003, 1.4640e-005
 595.643,155.422, 7.9830e-003, 1.5383e-005
 596.643,155.76, 7.9979e-003, 1.4628e-005
 597.643,156.097, 8.0126e-003, 1.5088e-005
 598.643,156.436, 8.0273e-003, 1.5006e-005
 599.643,156.776, 8.0414e-003, 1.3446e-005
 600.643,157.118, 8.0559e-003, 1.4779e-005
 601.643,157.461, 8.0703e-003, 1.4765e-005
 602.643,157.804, 8.0849e-003, 1.4578e-005
 603.643,158.147, 8.0992e-003, 1.4662e-005
 604.643,158.49, 8.1143e-003, 1.3985e-005
 605.643,158.835, 8.1283e-003, 1.5462e-005
 606.643,159.182, 8.1433e-003, 1.5013e-005
 607.643,159.53, 8.1577e-003, 1.4414e-005
 608.643,159.878, 8.1734e-003, 1.4445e-005
 609.643,160.226, 8.1873e-003, 1.4061e-005
 610.643,160.575, 8.2018e-003, 1.3938e-005
 611.643,160.924, 8.2161e-003, 1.4894e-005
 612.643,161.275, 8.2313e-003, 1.4003e-005
 613.643,161.626, 8.2454e-003, 1.5175e-005
 614.643,161.977, 8.2601e-003, 1.4001e-005
 615.643,162.328, 8.2742e-003, 1.4580e-005
 616.643,162.68, 8.2887e-003, 1.4359e-005
 617.643,163.031, 8.3037e-003, 1.5760e-005
 618.643,163.383, 8.3183e-003, 1.4663e-005
 619.643,163.736, 8.3324e-003, 1.4251e-005
 620.643,164.09, 8.3467e-003, 1.4592e-005
 621.643,164.444, 8.3614e-003, 1.4475e-005
 622.643,164.796, 8.3764e-003, 1.3869e-005
 623.643,165.15, 8.3907e-003, 1.5179e-005
 624.643,165.505, 8.4055e-003, 1.5366e-005
 625.643,165.86, 8.4197e-003, 1.5312e-005
 626.643,166.218, 8.4347e-003, 1.5165e-005
 627.643,166.574, 8.4497e-003, 1.5838e-005
 628.643,166.93, 8.4641e-003, 1.4362e-005
 629.643,167.286, 8.4783e-003, 1.5088e-005
 630.643,167.641, 8.4927e-003, 1.3871e-005
 631.643,167.996, 8.5074e-003, 1.5170e-005
 632.643,168.353, 8.5221e-003, 1.6281e-005
 633.643,168.71, 8.5365e-003, 1.4270e-005
 634.643,169.068, 8.5512e-003, 1.4888e-005
 635.643,169.426, 8.5660e-003, 1.5047e-005
 636.643,169.785, 8.5801e-003, 1.2771e-005
 637.643,170.143, 8.5947e-003, 1.4347e-005
 638.643,170.501, 8.6092e-003, 1.5203e-005
 639.643,170.86, 8.6234e-003, 1.4504e-005
 640.643,171.216, 8.6376e-003, 1.4845e-005
 641.643,171.572, 8.6519e-003, 1.4775e-005
 642.643,171.93, 8.6670e-003, 1.4271e-005
 643.643,172.289, 8.6812e-003, 1.6273e-005
 644.643,172.648, 8.6959e-003, 1.3725e-005
 645.643,173.008, 8.7105e-003, 1.5182e-005
 646.643,173.369, 8.7253e-003, 1.4568e-005
 647.643,173.731, 8.7394e-003, 1.3842e-005
 648.643,174.092, 8.7537e-003, 1.4335e-005
 649.643,174.451, 8.7680e-003, 1.4528e-005
 650.643,174.811, 8.7831e-003, 1.4045e-005
 651.643,175.171, 8.7974e-003, 1.4113e-005
 652.643,175.532, 8.8115e-003, 1.4938e-005
 653.643,175.895, 8.8259e-003, 1.4459e-005
 654.643,176.258, 8.8401e-003, 1.5804e-005
 655.643,176.619, 8.8546e-003, 1.3248e-005
 656.643,176.98, 8.8689e-003, 1.5210e-005
 657.643,177.341, 8.8838e-003, 1.4610e-005
 658.643,177.701, 8.8980e-003, 1.3131e-005
 659.643,178.061, 8.9124e-003, 1.4172e-005
 660.643,178.422, 8.9264e-003, 1.4994e-005
 661.643,178.786, 8.9413e-003, 1.4230e-005
 662.643,179.151, 8.9553e-003, 1.5173e-005
 663.643,179.515, 8.9693e-003, 1.4562e-005
 664.643,179.879, 8.9841e-003, 1.4378e-005
 665.643,180.243, 8.9985e-003, 1.4486e-005
 666.643,180.607, 9.0128e-003, 1.3918e-005
 667.643,180.972, 9.0280e-003, 1.4527e-005
 668.643,181.339, 9.0429e-003, 1.3788e-005
 669.643,181.709, 9.0590e-003, 1.6630e-005
 670.643,182.082, 9.0748e-003, 1.6479e-005
 671.643,182.456, 9.0910e-003, 1.6280e-005
 672.643,182.833, 9.1067e-003, 1.5903e-005
 673.643,183.213, 9.1227e-003, 1.5637e-005
 674.643,183.59, 9.1378e-003, 1.5215e-005
 675.643,183.964, 9.1520e-003, 1.3653e-005
 676.643,184.334, 9.1659e-003, 1.3984e-005
 677.643,184.7, 9.1800e-003, 1.3189e-005
 678.643,185.062, 9.1934e-003, 1.2873e-005
 679.643,185.421, 9.2067e-003, 1.3718e-005
 680.643,185.78, 9.2199e-003, 1.3105e-005
 681.643,186.138, 9.2341e-003, 1.3155e-005
 682.643,186.495, 9.2479e-003, 1.4187e-005
 683.643,186.854, 9.2622e-003, 1.4171e-005
 684.643,187.215, 9.2760e-003, 1.4531e-005
 685.643,187.577, 9.2912e-003, 1.3644e-005
 686.643,187.938, 9.3049e-003, 1.4322e-005
 687.643,188.301, 9.3187e-003, 1.2511e-005
 688.643,188.666, 9.3330e-003, 1.4688e-005
 689.643,189.032, 9.3483e-003, 1.4612e-005
 690.643,189.4, 9.3621e-003, 1.3527e-005
 691.643,189.768, 9.3762e-003, 1.4356e-005
 692.643,190.136, 9.3909e-003, 1.4935e-005
 693.643,190.506, 9.4053e-003, 1.3856e-005
 694.643,190.875, 9.4201e-003, 1.5219e-005
 695.643,191.246, 9.4339e-003, 1.4497e-005
 696.643,191.617, 9.4485e-003, 1.4489e-005
 697.643,191.99, 9.4631e-003, 1.4272e-005
 698.643,192.365, 9.4778e-003, 1.3956e-005
 699.643,192.742, 9.4927e-003, 1.5126e-005
 700.643,193.122, 9.5079e-003, 1.5677e-005
 701.643,193.503, 9.5221e-003, 1.4949e-005
 702.643,193.884, 9.5364e-003, 1.4201e-005
 703.643,194.264, 9.5506e-003, 1.4360e-005
 704.643,194.644, 9.5650e-003, 1.3716e-005
 705.643,195.023, 9.5793e-003, 1.4074e-005
 706.643,195.402, 9.5941e-003, 1.5274e-005
 707.643,195.782, 9.6084e-003, 1.3125e-005
 708.643,196.165, 9.6227e-003, 1.2793e-005
 709.643,196.548, 9.6371e-003, 1.5067e-005
 710.643,196.929, 9.6515e-003, 1.4432e-005
 711.643,197.31, 9.6658e-003, 1.3438e-005
 712.643,197.691, 9.6799e-003, 1.3787e-005
 713.643,198.073, 9.6942e-003, 1.4283e-005
 714.643,198.455, 9.7087e-003, 1.3136e-005
 715.643,198.838, 9.7236e-003, 1.4448e-005
 716.643,199.222, 9.7379e-003, 1.4690e-005
 717.643,199.607, 9.7522e-003, 1.3672e-005
 718.643,199.99, 9.7669e-003, 1.2807e-005
 719.643,200.373, 9.7813e-003, 1.4698e-005
 720.643,200.754, 9.7957e-003, 1.4550e-005
 721.643,201.133, 9.8101e-003, 1.4266e-005
 722.643,201.514, 9.8244e-003, 1.4383e-005
 723.643,201.895, 9.8385e-003, 1.5139e-005
 724.643,202.277, 9.8537e-003, 1.3825e-005
 725.643,202.658, 9.8679e-003, 1.3345e-005
 726.643,203.04, 9.8824e-003, 1.4130e-005
 727.643,203.423, 9.8970e-003, 1.4570e-005
 728.643,203.807, 9.9115e-003, 1.4948e-005
 729.643,204.19, 9.9261e-003, 1.4764e-005
 730.643,204.574, 9.9403e-003, 1.4793e-005
 731.643,204.958, 9.9545e-003, 1.4981e-005
 732.643,205.343, 9.9701e-003, 1.6123e-005
 733.643,205.728, 9.9857e-003, 1.4660e-005
 734.643,206.118, 1.0001e-002, 1.5790e-005
 735.643,206.512, 1.0017e-002, 1.7500e-005
 736.643,206.909, 1.0032e-002, 1.5456e-005
 737.643,207.304, 1.0048e-002, 1.5047e-005
 738.643,207.7, 1.0063e-002, 1.5873e-005
 739.643,208.094, 1.0077e-002, 1.4357e-005
 740.643,208.482, 1.0092e-002, 1.2716e-005
 741.643,208.865, 1.0105e-002, 1.1724e-005
 742.643,209.243, 1.0119e-002, 1.3819e-005
 743.643,209.618, 1.0132e-002, 1.3735e-005
 744.643,209.99, 1.0146e-002, 1.3110e-005
 745.643,210.361, 1.0159e-002, 1.4379e-005
 746.643,210.732, 1.0173e-002, 1.4546e-005
 747.643,211.104, 1.0187e-002, 1.2864e-005
 748.643,211.474, 1.0201e-002, 1.2907e-005
 749.643,211.846, 1.0215e-002, 1.5198e-005
 750.643,212.217, 1.0230e-002, 1.3999e-005
 751.643,212.592, 1.0243e-002, 1.3326e-005
 752.643,212.967, 1.0258e-002, 1.4991e-005
 753.643,213.342, 1.0273e-002, 1.2487e-005
 754.643,213.722, 1.0287e-002, 1.3892e-005
 755.643,214.103, 1.0301e-002, 1.4690e-005
 756.643,214.484, 1.0315e-002, 1.2560e-005
 757.643,214.863, 1.0329e-002, 1.4738e-005
 758.643,215.242, 1.0343e-002, 1.5751e-005
 759.643,215.624, 1.0356e-002, 1.3081e-005
 760.643,216.005, 1.0371e-002, 1.3499e-005
 761.643,216.387, 1.0385e-002, 1.4867e-005
 762.643,216.768, 1.0399e-002, 1.3598e-005
 763.643,217.149, 1.0413e-002, 1.4470e-005
 764.643,217.53, 1.0428e-002, 1.4060e-005
 765.643,217.915, 1.0441e-002, 1.3275e-005
 766.643,218.3, 1.0456e-002, 1.4482e-005
 767.643,218.685, 1.0470e-002, 1.3574e-005
 768.643,219.07, 1.0484e-002, 1.4033e-005
 769.643,219.454, 1.0498e-002, 1.3502e-005
 770.643,219.839, 1.0512e-002, 1.4774e-005
 771.643,220.225, 1.0527e-002, 1.4668e-005
 772.643,220.612, 1.0541e-002, 1.3315e-005
 773.643,221, 1.0555e-002, 1.3657e-005
 774.643,221.388, 1.0570e-002, 1.4242e-005
 775.643,221.775, 1.0584e-002, 1.4396e-005
 776.643,222.161, 1.0598e-002, 1.4634e-005
 777.643,222.548, 1.0613e-002, 1.5477e-005
 778.643,222.936, 1.0627e-002, 1.3266e-005
 779.643,223.324, 1.0641e-002, 1.4666e-005
 780.643,223.71, 1.0656e-002, 1.4375e-005
 781.643,224.098, 1.0670e-002, 1.4060e-005
 782.643,224.489, 1.0684e-002, 1.3375e-005
 783.643,224.88, 1.0699e-002, 1.5080e-005
 784.643,225.27, 1.0714e-002, 1.4209e-005
 785.643,225.66, 1.0728e-002, 1.5656e-005
 786.643,226.05, 1.0743e-002, 1.5163e-005
 787.643,226.441, 1.0757e-002, 1.4720e-005
 788.643,226.834, 1.0772e-002, 1.4835e-005
 789.643,227.229, 1.0786e-002, 1.4949e-005
 790.643,227.629, 1.0801e-002, 1.4546e-005
 791.643,228.036, 1.0816e-002, 1.4528e-005
 792.643,228.448, 1.0832e-002, 1.4332e-005
 793.643,228.864, 1.0847e-002, 1.4967e-005
 794.643,229.284, 1.0861e-002, 1.4779e-005
 795.643,229.705, 1.0876e-002, 1.5687e-005
 796.643,230.13, 1.0891e-002, 1.6838e-005
 797.643,230.568, 1.0907e-002, 1.7644e-005
 798.643,231.015, 1.0923e-002, 1.6003e-005
 799.643,231.457, 1.0938e-002, 1.5393e-005
 800.643,231.887, 1.0953e-002, 1.4252e-005
 801.643,232.312, 1.0968e-002, 1.6546e-005
 802.643,232.742, 1.0984e-002, 1.7216e-005
 803.643,233.185, 1.1001e-002, 1.6985e-005
 804.643,233.638, 1.1018e-002, 1.7011e-005
 805.643,234.093, 1.1033e-002, 1.4184e-005
 806.643,234.544, 1.1048e-002, 1.4664e-005
 807.643,234.985, 1.1061e-002, 1.3877e-005
 808.643,235.416, 1.1075e-002, 1.3570e-005
 809.643,235.837, 1.1088e-002, 1.2959e-005
 810.643,236.255, 1.1101e-002, 1.3052e-005
 811.643,236.669, 1.1115e-002, 1.3829e-005
 812.643,237.079, 1.1128e-002, 1.2287e-005
 813.643,237.49, 1.1142e-002, 1.2736e-005
 814.643,237.898, 1.1155e-002, 1.3892e-005
 815.643,238.298, 1.1168e-002, 1.1988e-005
 816.643,238.692, 1.1180e-002, 1.2676e-005
 817.643,239.084, 1.1194e-002, 1.3376e-005
 818.643,239.475, 1.1207e-002, 1.2476e-005
 819.643,239.869, 1.1221e-002, 1.2709e-005
 820.643,240.267, 1.1235e-002, 1.3429e-005
 821.643,240.667, 1.1248e-002, 1.4322e-005
 822.643,241.069, 1.1261e-002, 1.4886e-005
 823.643,241.471, 1.1276e-002, 1.2775e-005
 824.643,241.872, 1.1289e-002, 1.4055e-005
 825.643,242.271, 1.1302e-002, 1.3202e-005
 826.643,242.668, 1.1315e-002, 1.3764e-005
 827.643,243.065, 1.1329e-002, 1.3834e-005
 828.643,243.461, 1.1342e-002, 1.3232e-005
 829.643,243.854, 1.1356e-002, 1.3880e-005
 830.643,244.248, 1.1369e-002, 1.3711e-005
 831.643,244.642, 1.1381e-002, 1.3777e-005
 832.643,245.035, 1.1395e-002, 1.4047e-005
 833.643,245.427, 1.1410e-002, 1.2873e-005
 834.643,245.819, 1.1422e-002, 1.3549e-005
 835.643,246.21, 1.1436e-002, 1.3756e-005
 836.643,246.598, 1.1449e-002, 1.2435e-005
 837.643,246.986, 1.1462e-002, 1.3008e-005
 838.643,247.372, 1.1476e-002, 1.2382e-005
 839.643,247.757, 1.1489e-002, 1.3866e-005
 840.643,248.144, 1.1503e-002, 1.5234e-005
 841.643,248.532, 1.1517e-002, 1.2428e-005
 842.643,248.919, 1.1530e-002, 1.4889e-005
 843.643,249.303, 1.1544e-002, 1.3342e-005
 844.643,249.688, 1.1556e-002, 1.3611e-005
 845.643,250.074, 1.1571e-002, 1.4136e-005
 846.643,250.46, 1.1584e-002, 1.3814e-005
 847.643,250.844, 1.1598e-002, 1.3868e-005
 848.643,251.228, 1.1611e-002, 1.3787e-005
 849.643,251.613, 1.1625e-002, 1.4397e-005
 850.643,251.996, 1.1639e-002, 1.3159e-005
 851.643,252.377, 1.1652e-002, 1.2846e-005
 852.643,252.759, 1.1665e-002, 1.4367e-005
 853.643,253.14, 1.1680e-002, 1.3307e-005
 854.643,253.521, 1.1694e-002, 1.3305e-005
 855.643,253.904, 1.1708e-002, 1.3937e-005
 856.643,254.291, 1.1722e-002, 1.4462e-005
 857.643,254.679, 1.1737e-002, 1.4477e-005
 858.643,255.072, 1.1752e-002, 1.5223e-005
 859.643,255.467, 1.1767e-002, 1.4782e-005
 860.643,255.867, 1.1782e-002, 1.5127e-005
 861.643,256.271, 1.1797e-002, 1.5634e-005
 862.643,256.672, 1.1812e-002, 1.3947e-005
 863.643,257.064, 1.1826e-002, 1.3351e-005
 864.643,257.452, 1.1840e-002, 1.3626e-005
 865.643,257.837, 1.1853e-002, 1.5269e-005
 866.643,258.22, 1.1866e-002, 1.4757e-005
 867.643,258.6, 1.1880e-002, 1.3358e-005
 868.643,258.977, 1.1893e-002, 1.3473e-005
 869.643,259.353, 1.1906e-002, 1.3193e-005
 870.643,259.73, 1.1920e-002, 1.3558e-005
 871.643,260.108, 1.1934e-002, 1.3620e-005
 872.643,260.488, 1.1948e-002, 1.4332e-005
 873.643,260.87, 1.1961e-002, 1.2370e-005
 874.643,261.254, 1.1975e-002, 1.2670e-005
 875.643,261.641, 1.1989e-002, 1.3931e-005
 876.643,262.028, 1.2002e-002, 1.2600e-005
 877.643,262.413, 1.2016e-002, 1.3971e-005
 878.643,262.783, 1.2028e-002, 9.8564e-006
 879.643,263.133, 1.2038e-002, 1.1064e-005
 880.643,263.48, 1.2051e-002, 1.3658e-005
 881.643,263.839, 1.2066e-002, 1.5552e-005
 882.643,264.218, 1.2081e-002, 1.6510e-005
 883.643,264.615, 1.2097e-002, 1.4483e-005
 884.643,265.019, 1.2112e-002, 1.4061e-005
 885.643,265.42, 1.2125e-002, 1.4129e-005
 886.643,265.817, 1.2139e-002, 1.3755e-005
 887.643,266.211, 1.2152e-002, 1.4019e-005
 888.643,266.602, 1.2165e-002, 1.4539e-005
 889.643,266.994, 1.2179e-002, 1.3819e-005
 890.643,267.39, 1.2194e-002, 1.3400e-005
 891.643,267.791, 1.2208e-002, 1.3041e-005
 892.643,268.194, 1.2222e-002, 1.4828e-005
 893.643,268.598, 1.2236e-002, 1.4238e-005
 894.643,269.003, 1.2250e-002, 1.5146e-005
 895.643,269.406, 1.2264e-002, 1.3239e-005
 896.643,269.811, 1.2278e-002, 1.4117e-005
 897.643,270.216, 1.2291e-002, 1.4435e-005
 898.643,270.62, 1.2306e-002, 1.2713e-005
 899.643,271.027, 1.2321e-002, 1.3318e-005
 900.643,271.442, 1.2335e-002, 1.4391e-005
 901.643,271.86, 1.2348e-002, 1.3653e-005
 902.643,272.276, 1.2363e-002, 1.3492e-005
 903.643,272.689, 1.2376e-002, 1.2671e-005
 904.643,273.103, 1.2390e-002, 1.3562e-005
 905.643,273.523, 1.2404e-002, 1.2871e-005
 906.643,273.976, 1.2419e-002, 1.8403e-005
 907.643,274.494, 1.2439e-002, 1.7235e-005
 908.643,275.004, 1.2454e-002, 1.3910e-005
 909.643,275.462, 1.2467e-002, 1.4115e-005
 910.643,275.896, 1.2480e-002, 1.3641e-005
 911.643,276.337, 1.2496e-002, 1.8304e-005
 912.643,276.804, 1.2513e-002, 1.7149e-005
 913.643,277.311, 1.2531e-002, 1.7092e-005
 914.643,277.87, 1.2550e-002, 1.9871e-005
 915.643,278.535, 1.2572e-002, 2.0145e-005
 916.643,279.166, 1.2583e-002, 6.9750e-006
 917.643,279.653, 1.2591e-002, 7.6248e-006
 918.643,280.072, 1.2600e-002, 8.3950e-006
 919.643,280.461, 1.2611e-002, 1.1132e-005
 920.643,280.842, 1.2623e-002, 1.0638e-005
 921.643,281.223, 1.2634e-002, 1.3967e-005
 922.643,281.607, 1.2647e-002, 1.2252e-005
 923.643,281.99, 1.2659e-002, 1.3219e-005
 924.643,282.369, 1.2673e-002, 1.2947e-005
 925.643,282.741, 1.2684e-002, 1.1132e-005
 926.643,283.105, 1.2696e-002, 1.0871e-005
 927.643,283.471, 1.2708e-002, 1.3094e-005
 928.643,283.845, 1.2721e-002, 1.3690e-005
 929.643,284.235, 1.2736e-002, 1.3181e-005
 930.643,284.638, 1.2750e-002, 1.4163e-005
 931.643,285.046, 1.2763e-002, 1.2070e-005
 932.643,285.444, 1.2775e-002, 1.2176e-005
 933.643,285.826, 1.2786e-002, 1.2260e-005
 934.643,286.197, 1.2797e-002, 1.2744e-005
 935.643,286.568, 1.2810e-002, 1.3142e-005
 936.643,286.949, 1.2823e-002, 1.4849e-005
 937.643,287.34, 1.2838e-002, 1.6016e-005
 938.643,287.741, 1.2852e-002, 1.2094e-005
 939.643,288.149, 1.2865e-002, 1.2860e-005
 940.643,288.55, 1.2878e-002, 1.2404e-005
 941.643,288.939, 1.2890e-002, 1.2321e-005
 942.643,289.318, 1.2902e-002, 1.0881e-005
 943.643,289.688, 1.2914e-002, 1.2427e-005
 944.643,290.055, 1.2927e-002, 1.1919e-005
 945.643,290.427, 1.2940e-002, 1.4924e-005
 946.643,290.802, 1.2953e-002, 1.3876e-005
 947.643,291.174, 1.2967e-002, 1.3990e-005
 948.643,291.546, 1.2980e-002, 1.4213e-005
 949.643,291.919, 1.2994e-002, 1.4834e-005
 950.643,292.295, 1.3008e-002, 1.4238e-005
 951.643,292.679, 1.3023e-002, 1.3834e-005
 952.643,293.073, 1.3038e-002, 1.5408e-005
 953.643,293.468, 1.3053e-002, 1.3847e-005
 954.643,293.86, 1.3067e-002, 1.3847e-005
 955.643,294.247, 1.3080e-002, 1.3510e-005
 956.643,294.627, 1.3093e-002, 1.2756e-005
 957.643,295.004, 1.3106e-002, 1.3794e-005
 958.643,295.379, 1.3119e-002, 1.2840e-005
 959.643,295.754, 1.3132e-002, 1.3164e-005
 960.643,296.127, 1.3145e-002, 1.2928e-005
 961.643,296.499, 1.3157e-002, 1.3488e-005
 962.643,296.87, 1.3171e-002, 1.2047e-005
 963.643,297.237, 1.3183e-002, 1.2359e-005
 964.643,297.601, 1.3196e-002, 1.3233e-005
 965.643,297.963, 1.3209e-002, 1.3191e-005
 966.643,298.325, 1.3222e-002, 1.4080e-005
 967.643,298.686, 1.3234e-002, 1.1706e-005
 968.643,299.042, 1.3248e-002, 1.2721e-005
 969.643,299.396, 1.3261e-002, 1.2683e-005
 970.643,299.754, 1.3274e-002, 1.3903e-005
 971.643,300.123, 1.3289e-002, 1.5415e-005
 972.643,300.503, 1.3303e-002, 1.3352e-005
 973.643,300.882, 1.3316e-002, 1.1555e-005
 974.643,301.252, 1.3329e-002, 1.3147e-005
 975.643,301.619, 1.3342e-002, 1.3005e-005
 976.643,301.981, 1.3356e-002, 1.4045e-005
 977.643,302.345, 1.3369e-002, 1.2866e-005
 978.643,302.708, 1.3382e-002, 1.1848e-005
 979.643,303.069, 1.3395e-002, 1.3913e-005
 980.643,303.434, 1.3409e-002, 1.3513e-005
 981.643,303.804, 1.3423e-002, 1.3709e-005
 982.643,304.184, 1.3437e-002, 1.5214e-005
 983.643,304.574, 1.3452e-002, 1.4734e-005
 984.643,304.958, 1.3465e-002, 1.3148e-005
 985.643,305.325, 1.3478e-002, 1.1758e-005
 986.643,305.684, 1.3491e-002, 1.3171e-005
 987.643,306.037, 1.3503e-002, 1.2497e-005
 988.643,306.391, 1.3517e-002, 1.3620e-005
 989.643,306.755, 1.3532e-002, 1.3860e-005
 990.643,307.127, 1.3546e-002, 1.4106e-005
 991.643,307.503, 1.3560e-002, 1.4618e-005
 992.643,307.882, 1.3574e-002, 1.3603e-005
 993.643,308.259, 1.3588e-002, 1.3187e-005
 994.643,308.627, 1.3600e-002, 1.2612e-005
 995.643,308.984, 1.3612e-002, 1.3211e-005
 996.643,309.334, 1.3626e-002, 1.4431e-005
 997.643,309.69, 1.3640e-002, 1.4209e-005
 998.643,310.062, 1.3656e-002, 1.5725e-005
 999.643,310.45, 1.3672e-002, 1.6924e-005
1000.64,310.843, 1.3687e-002, 1.5069e-005
1001.64,311.231, 1.3701e-002, 1.4095e-005
1002.64,311.614, 1.3716e-002, 1.4514e-005
1003.64,311.995, 1.3730e-002, 1.4833e-005
1004.64,312.375, 1.3745e-002, 1.2901e-005
1005.64,312.751, 1.3758e-002, 1.4786e-005
1006.64,313.125, 1.3771e-002, 1.4114e-005
1007.64,313.495, 1.3785e-002, 1.2778e-005
1008.64,313.862, 1.3798e-002, 1.3382e-005
1009.64,314.227, 1.3812e-002, 1.3843e-005
1010.64,314.59, 1.3825e-002, 1.3205e-005
1011.64,314.95, 1.3838e-002, 1.4073e-005
1012.64,315.306, 1.3851e-002, 1.3026e-005
1013.64,315.665, 1.3865e-002, 1.4345e-005
1014.64,316.026, 1.3878e-002, 1.3830e-005
1015.64,316.386, 1.3892e-002, 1.2702e-005
1016.64,316.75, 1.3906e-002, 1.3683e-005
1017.64,317.115, 1.3919e-002, 1.2498e-005
1018.64,317.482, 1.3933e-002, 1.4538e-005
1019.64,317.853, 1.3947e-002, 1.4672e-005
1020.64,318.226, 1.3961e-002, 1.2737e-005
1021.64,318.602, 1.3975e-002, 1.2620e-005
1022.64,318.981, 1.3988e-002, 1.3928e-005
1023.64,319.358, 1.4001e-002, 1.3410e-005
1024.64,319.73, 1.4015e-002, 1.2720e-005
1025.64,320.094, 1.4027e-002, 1.3372e-005
1026.64,320.461, 1.4042e-002, 1.5245e-005
1027.64,320.84, 1.4056e-002, 1.2159e-005
1028.64,321.224, 1.4070e-002, 1.4121e-005
1029.64,321.607, 1.4084e-002, 1.3731e-005
1030.64,321.987, 1.4097e-002, 1.1776e-005
1031.64,322.366, 1.4111e-002, 1.5546e-005
1032.64,322.741, 1.4124e-002, 1.2665e-005
1033.64,323.104, 1.4136e-002, 1.1876e-005
1034.64,323.468, 1.4150e-002, 1.5359e-005
1035.64,323.836, 1.4163e-002, 1.4547e-005
1036.64,324.206, 1.4177e-002, 1.3634e-005
1037.64,324.583, 1.4191e-002, 1.2055e-005
1038.64,324.964, 1.4205e-002, 1.3664e-005
1039.64,325.347, 1.4218e-002, 1.4341e-005
1040.64,325.734, 1.4232e-002, 1.2703e-005
1041.64,326.121, 1.4246e-002, 1.3693e-005
1042.64,326.503, 1.4258e-002, 1.2129e-005
1043.64,326.883, 1.4273e-002, 1.5252e-005
1044.64,327.261, 1.4288e-002, 1.4272e-005
1045.64,327.626, 1.4300e-002, 1.1146e-005
1046.64,327.974, 1.4312e-002, 1.3680e-005
1047.64,328.323, 1.4327e-002, 1.4973e-005
1048.64,328.684, 1.4342e-002, 1.5509e-005
1049.64,329.062, 1.4358e-002, 1.5721e-005