File: data_backup/8.1mm/sanMtT0p3s1r1-4.35mm.csv
#EXPORTTYPE:           ,DATA ALL                      ,,
#FILE:                 ,sanidMtp3run1.ngb-sle         ,,
#FORMAT:               ,NETZSCH5                      ,,
#FTYPE:                ,ANSI                          ,,
#IDENTITY:             ,mt thrid orien                ,,
#DECIMAL:              ,POINT                         ,,
#SEPARATOR:            ,COMMA                         ,,
#MTYPE:                ,DIL                           ,,
#INSTRUMENT:           ,NETZSCH DIL 402C              ,,
#PROJECT:              ,morb                          ,,
#DATE/TIME:            ,11/14/2018 11:35:03 AM (UTC-6),,
#CORR. FILE:           ,                              ,,
#TEMPCAL:              ,TCALZERO.TMX                  ,,
#LABORATORY:           ,min phys                      ,,
#OPERATOR:             ,amh                           ,,
#REMARK:               ,bare, norm start, calib run
#SAMPLE:               ,mt t ortho010                 ,,
#SAMPLE LENGTH /mm:    ,4.35,,
#MATERIAL:             ,sapphire stnd                 ,,
#MEASMODE:             ,Standard Expansion            ,,
#PURGE GAS 1:          ,ARGON                         ,,
#FLOW RATE 1 /(ml/min):,75,,
#M.RANGE /�m:          ,500,,
#CORR. CODE:           ,10,,
#RANGE:                ,20.0�C/3.0(K/min)/950.0�C     ,,
#SEGMENT:              ,S1/1                          ,,
#SEG. 1:               ,20.0�C/3.0(K/min)/950.0�C     ,,
,,,
##Temp./�C,Time/min,dL/Lo,
23.465,0,2.9017E-05,
23.469,0.02167,2.8213E-05,
23.464,0.04333,2.8435E-05,
23.465,0.065,2.8902E-05,
23.462,0.08667,2.822E-05,
23.457,0.10833,2.8213E-05,
23.45,0.13,2.822E-05,
23.458,0.15167,2.8105E-05,
23.453,0.17333,2.8615E-05,
23.452,0.195,2.8407E-05,
23.447,0.21667,2.6561E-05,
23.441,0.23833,2.807E-05,
23.444,0.26,2.7631E-05,
23.442,0.28167,2.7588E-05,
23.44,0.30333,2.8178E-05,
23.437,0.325,2.6892E-05,
23.433,0.34667,2.7352E-05,
23.431,0.36833,2.7021E-05,
23.431,0.39,2.6504E-05,
23.427,0.41167,2.6504E-05,
23.426,0.43333,2.6382E-05,
23.424,0.455,2.6655E-05,
23.423,0.47667,2.6073E-05,
23.416,0.49833,2.6138E-05,
23.416,0.52,2.6253E-05,
23.418,0.54167,2.5721E-05,
23.415,0.56333,2.5614E-05,
23.41,0.585,2.5894E-05,
23.403,0.60667,2.5269E-05,
23.401,0.62833,2.5686E-05,
23.405,0.65,2.5571E-05,
23.4,0.67167,2.519E-05,
23.398,0.69333,2.5176E-05,
23.397,0.715,2.5054E-05,
23.399,0.73667,2.5097E-05,
23.393,0.75833,2.4249E-05,
23.388,0.78,2.4645E-05,
23.39,0.80167,2.4803E-05,
23.39,0.82333,2.4285E-05,
23.385,0.845,2.4451E-05,
23.384,0.86667,2.3812E-05,
23.383,0.88833,2.4006E-05,
23.383,0.91,2.412E-05,
23.379,0.93167,2.3316E-05,
23.381,0.95333,2.2267E-05,
23.378,0.975,2.3309E-05,
23.375,0.99667,2.3287E-05,
23.375,1.01833,2.3144E-05,
23.375,1.04,2.3144E-05,
23.371,1.06167,2.2655E-05,
23.37,1.08333,2.239E-05,
23.369,1.105,2.2555E-05,
23.371,1.12667,2.2282E-05,
23.373,1.14833,2.1836E-05,
23.372,1.17,2.2174E-05,
23.367,1.19167,2.0903E-05,
23.362,1.21333,2.1614E-05,
23.363,1.235,2.1161E-05,
23.359,1.25667,2.0501E-05,
23.353,1.27833,2.04E-05,
23.347,1.3,1.9898E-05,
23.349,1.32167,1.9797E-05,
23.347,1.34333,2.0041E-05,
23.345,1.365,1.9653E-05,
23.347,1.38667,1.9581E-05,
23.343,1.40833,1.9064E-05,
23.338,1.43,1.8741E-05,
23.33,1.45167,1.8943E-05,
23.334,1.47333,1.8483E-05,
23.329,1.495,1.816E-05,
23.333,1.51667,1.8677E-05,
23.325,1.53833,1.8447E-05,
23.325,1.56,1.7039E-05,
23.32,1.58167,1.7521E-05,
23.317,1.60333,1.7269E-05,
23.318,1.625,1.742E-05,
23.317,1.64667,1.6723E-05,
23.313,1.66833,1.6695E-05,
23.318,1.69,1.6386E-05,
23.311,1.71167,1.6422E-05,
23.311,1.73333,1.5818E-05,
23.309,1.755,1.5746E-05,
23.302,1.77667,1.6156E-05,
23.301,1.79833,1.5632E-05,
23.299,1.82,1.5704E-05,
23.295,1.84167,1.4928E-05,
23.297,1.86333,1.5143E-05,
23.292,1.885,1.459E-05,
23.284,1.90667,1.4706E-05,
23.285,1.92833,1.4598E-05,
23.291,1.95,1.3922E-05,
23.286,1.97167,1.403E-05,
23.281,1.99333,1.4023E-05,
23.278,2.015,1.3513E-05,
23.28,2.03667,1.3614E-05,
23.273,2.05833,1.3075E-05,
23.276,2.08,1.2436E-05,
23.278,2.10167,1.2709E-05,
23.271,2.12333,1.3291E-05,
23.266,2.145,1.268E-05,
23.266,2.16667,1.268E-05,
23.268,2.18833,1.2781E-05,
23.272,2.21,1.2005E-05,
23.268,2.23167,1.1402E-05,
23.272,2.25333,1.1718E-05,
23.267,2.275,1.1021E-05,
23.268,2.29667,1.1517E-05,
23.264,2.31833,1.1028E-05,
23.26,2.34,1.1114E-05,
23.257,2.36167,1.0461E-05,
23.256,2.38333,1.0023E-05,
23.249,2.405,1.0088E-05,
23.252,2.42667,9.4768E-06,
23.247,2.44833,9.0675E-06,
23.247,2.47,8.9238E-06,
23.247,2.49167,8.8376E-06,
23.243,2.51333,8.8377E-06,
23.247,2.535,9.1537E-06,
23.247,2.55667,8.4928E-06,
23.24,2.57833,8.4427E-06,
23.237,2.6,7.7029E-06,
23.234,2.62167,8.3136E-06,
23.239,2.64333,7.516E-06,
23.233,2.665,8.1915E-06,
23.235,2.68667,7.8323E-06,
23.232,2.70833,6.8338E-06,
23.235,2.73,6.9415E-06,
23.224,2.75167,6.6042E-06,
23.223,2.77333,7.0855E-06,
23.224,2.795,6.4605E-06,
23.219,2.81667,5.7926E-06,
23.221,2.83833,5.7494E-06,
23.211,2.86,5.7066E-06,
23.208,2.88167,5.9725E-06,
23.204,2.90333,4.9382E-06,
23.209,2.925,4.9739E-06,
23.203,2.94667,4.931E-06,
23.203,2.96833,5.1897E-06,
23.202,2.99,4.7227E-06,
23.2,3.01167,4.651E-06,
23.197,3.03333,3.9686E-06,
23.197,3.055,4.4571E-06,
23.193,3.07667,3.4228E-06,
23.191,3.09833,4.0119E-06,
23.191,3.12,3.4372E-06,
23.184,3.14167,3.3297E-06,
23.182,3.16333,2.7406E-06,
23.178,3.185,2.712E-06,
23.177,3.20667,3.2509E-06,
23.179,3.22833,2.8916E-06,
23.176,3.25,2.4104E-06,
23.172,3.27167,2.3243E-06,
23.171,3.29333,1.4264E-06,
23.173,3.315,2.2453E-06,
23.171,3.33667,1.7999E-06,
23.167,3.35833,9.6673E-07,
23.169,3.38,1.3546E-06,
23.159,3.40167,5.647E-07,
23.165,3.42333,6.9381E-07,
23.157,3.445,2.343E-07,
23.163,3.46667,-2.9751E-07,
23.16,3.48833,2.8449E-07,
23.16,3.51,3.1323E-07,
23.165,3.53167,1.7657E-07,
23.163,3.55333,-1.8256E-07,
23.162,3.575,-7.3568E-07,
23.164,3.59667,-1.2961E-06,
23.163,3.61833,-1.1021E-06,
23.159,3.64,-1.102E-06,
23.158,3.66167,-1.77E-06,
23.164,3.68333,-1.8996E-06,
23.164,3.705,-2.3881E-06,
23.162,3.72667,-2.8334E-06,
23.168,3.74833,-3.279E-06,
23.169,3.77,-3.5305E-06,
23.172,3.79167,-3.6814E-06,
23.173,3.81333,-4.4501E-06,
23.177,3.835,-4.0767E-06,
23.181,3.85667,-5.1688E-06,
23.176,3.87833,-5.7505E-06,
23.184,3.9,-6.0956E-06,
23.192,3.92167,-6.1534E-06,
23.198,3.94333,-6.1392E-06,
23.209,3.965,-7.2962E-06,
23.222,3.98667,-7.7205E-06,
23.234,4.00833,-7.8071E-06,
23.234,4.03,-7.8933E-06,
23.245,4.05167,-9.0215E-06,
23.258,4.07333,-9.3596E-06,
23.261,4.095,-1.0028E-05,
23.279,4.11667,-1.01E-05,
23.282,4.13833,-1.1429E-05,
23.296,4.16,-1.1933E-05,
23.305,4.18167,-1.2443E-05,
23.315,4.20333,-1.332E-05,
23.328,4.225,-1.429E-05,
23.334,4.24667,-1.5569E-05,
23.351,4.26833,-1.5792E-05,
23.367,4.29,-1.7E-05,
23.381,4.31167,-1.779E-05,
23.394,4.33333,-1.833E-05,
23.409,4.355,-1.9515E-05,
23.427,4.37667,-2.0824E-05,
23.451,4.39833,-2.1399E-05,
23.47,4.42,-2.2987E-05,
23.486,4.44167,-2.27E-05,
23.51,4.46333,-2.4799E-05,
23.516,4.485,-2.5101E-05,
23.542,4.50667,-2.7271E-05,
23.565,4.52833,-2.771E-05,
23.59,4.55,-2.9169E-05,
23.603,4.57167,-3.0571E-05,
23.625,4.59333,-3.1132E-05,
23.654,4.615,-3.2677E-05,
23.688,4.63667,-3.3813E-05,
23.703,4.65833,-3.4769E-05,
23.726,4.68,-3.5812E-05,
23.757,4.70167,-3.7084E-05,
23.785,4.72333,-3.878E-05,
23.815,4.745,-4.006E-05,
23.843,4.76667,-4.1095E-05,
23.873,4.78833,-4.2892E-05,
23.91,4.81,-4.3691E-05,
23.947,4.83167,-4.5093E-05,
23.984,4.85333,-4.6926E-05,
24.005,4.875,-4.8097E-05,
24.046,4.89667,-4.9672E-05,
24.085,4.91833,-5.083E-05,
24.118,4.94,-5.203E-05,
24.158,4.96167,-5.3066E-05,
24.194,4.98333,-5.5452E-05,
24.243,5.005,-5.6682E-05,
24.282,5.02667,-5.8357E-05,
24.334,5.04833,-5.9134E-05,
24.376,5.07,-6.0903E-05,
24.42,5.09167,-6.2053E-05,
24.469,5.11333,-6.4663E-05,
24.513,5.135,-6.5928E-05,
24.56,5.15667,-6.6741E-05,
24.606,5.17833,-6.8998E-05,
24.655,5.2,-7.04E-05,
24.703,5.22167,-7.2241E-05,
24.765,5.24333,-7.332E-05,
24.805,5.265,-7.516E-05,
24.861,5.28667,-7.7202E-05,
24.91,5.30833,-7.8547E-05,
24.972,5.33,-8.0804E-05,
25.018,5.35167,-8.2199E-05,
25.08,5.37333,-8.3307E-05,
25.136,5.395,-8.5176E-05,
25.198,5.41667,-8.6916E-05,
25.257,5.43833,-8.8448E-05,
25.315,5.46,-8.9814E-05,
25.373,5.48167,-9.1065E-05,
25.433,5.50333,-9.2762E-05,
25.5,5.525,-9.484E-05,
25.564,5.54667,-9.6479E-05,
25.624,5.56833,-9.8004E-05,
25.69,5.59,-9.9887E-05,
25.745,5.61167,-0.00010168,
25.819,5.63333,-0.00010299,
25.892,5.655,-0.00010459,
25.96,5.67667,-0.00010606,
26.026,5.69833,-0.00010875,
26.096,5.72,-0.00011103,
26.166,5.74167,-0.00011266,
26.237,5.76333,-0.0001135,
26.309,5.785,-0.00011522,
26.38,5.80667,-0.00011713,
26.454,5.82833,-0.00011841,
26.526,5.85,-0.00012071,
26.603,5.87167,-0.00012174,
26.675,5.89333,-0.00012343,
26.749,5.915,-0.00012558,
26.832,5.93667,-0.00012656,
26.907,5.95833,-0.00012818,
26.981,5.98,-0.00013078,
27.064,6.00167,-0.00013145,
27.14,6.02333,-0.00013266,
27.226,6.045,-0.00013506,
27.297,6.06667,-0.00013648,
27.39,6.08833,-0.00013831,
27.463,6.11,-0.00013988,
27.547,6.13167,-0.00014072,
27.638,6.15333,-0.00014242,
27.723,6.175,-0.00014391,
27.804,6.19667,-0.00014549,
27.891,6.21833,-0.0001471,
27.978,6.24,-0.00014838,
28.067,6.26167,-0.00015018,
28.146,6.28333,-0.00015185,
28.23,6.305,-0.00015326,
28.324,6.32667,-0.00015431,
28.415,6.34833,-0.00015518,
28.505,6.37,-0.0001575,
28.594,6.39167,-0.00015893,
28.685,6.41333,-0.00016006,
28.774,6.435,-0.00016189,
28.874,6.45667,-0.00016264,
28.954,6.47833,-0.00016385,
29.048,6.5,-0.00016492,
29.14,6.52167,-0.00016665,
29.228,6.54333,-0.00016725,
29.321,6.565,-0.00016891,
29.418,6.58667,-0.00017034,
29.512,6.60833,-0.00017151,
29.613,6.63,-0.00017242,
29.702,6.65167,-0.00017319,
29.795,6.67333,-0.00017522,
29.893,6.695,-0.0001755,
29.993,6.71667,-0.00017719,
30.083,6.73833,-0.00017836,
30.189,6.76,-0.00017941,
30.281,6.78167,-0.00018056,
30.385,6.80333,-0.00018087,
30.476,6.825,-0.00018206,
30.579,6.84667,-0.00018333,
30.674,6.86833,-0.00018391,
30.775,6.89,-0.00018425,
30.871,6.91167,-0.00018497,
30.97,6.93333,-0.00018601,
31.073,6.955,-0.00018694,
31.157,6.97667,-0.00018774,
31.264,6.99833,-0.00018841,
31.371,7.02,-0.00018939,
31.476,7.04167,-0.00019077,
31.576,7.06333,-0.00019059,
31.684,7.085,-0.00019148,
31.782,7.10667,-0.0001919,
31.891,7.12833,-0.00019342,
31.992,7.15,-0.00019306,
32.097,7.17167,-0.00019334,
32.19,7.19333,-0.00019414,
32.295,7.215,-0.00019451,
32.404,7.23667,-0.00019444,
32.498,7.25833,-0.00019575,
32.61,7.28,-0.00019598,
32.71,7.30167,-0.00019621,
32.812,7.32333,-0.00019616,
32.92,7.345,-0.00019717,
33.022,7.36667,-0.00019733,
33.135,7.38833,-0.00019715,
33.236,7.41,-0.00019737,
33.336,7.43167,-0.00019889,
33.441,7.45333,-0.00019865,
33.548,7.475,-0.00019863,
33.652,7.49667,-0.00019935,
33.753,7.51833,-0.0001994,
33.86,7.54,-0.00019894,
33.972,7.56167,-0.0001988,
34.079,7.58333,-0.00019906,
34.175,7.605,-0.00019892,
34.281,7.62667,-0.00019876,
34.393,7.64833,-0.00019876,
34.506,7.67,-0.00019846,
34.611,7.69167,-0.00019943,
34.719,7.71333,-0.00019894,
34.831,7.735,-0.00019779,
34.943,7.75667,-0.00019874,
35.049,7.77833,-0.00019818,
35.137,7.8,-0.00019835,
35.238,7.82167,-0.00019791,
35.348,7.84333,-0.00019755,
35.449,7.865,-0.00019751,
35.563,7.88667,-0.00019729,
35.667,7.90833,-0.00019712,
35.781,7.93,-0.00019673,
35.875,7.95167,-0.00019631,
35.985,7.97333,-0.00019612,
36.09,7.995,-0.00019583,
36.199,8.01667,-0.00019524,
36.309,8.03833,-0.00019508,
36.409,8.06,-0.00019468,
36.514,8.08167,-0.0001945,
36.623,8.10333,-0.00019314,
36.731,8.125,-0.00019331,
36.829,8.14667,-0.000193,
36.94,8.16833,-0.00019195,
37.047,8.19,-0.00019115,
37.149,8.21167,-0.00019102,
37.262,8.23333,-0.00018966,
37.372,8.255,-0.00018944,
37.472,8.27667,-0.00018915,
37.583,8.29833,-0.00018826,
37.695,8.32,-0.00018763,
37.791,8.34167,-0.00018685,
37.898,8.36333,-0.00018614,
37.998,8.385,-0.00018567,
38.115,8.40667,-0.00018521,
38.223,8.42833,-0.000184,
38.327,8.45,-0.00018376,
38.428,8.47167,-0.00018237,
38.542,8.49333,-0.00018173,
38.646,8.515,-0.00018075,
38.749,8.53667,-0.00018015,
38.859,8.55833,-0.0001789,
38.968,8.58,-0.00017906,
39.069,8.60167,-0.00017784,
39.178,8.62333,-0.00017683,
39.285,8.645,-0.00017585,
39.395,8.66667,-0.00017512,
39.495,8.68833,-0.00017466,
39.604,8.71,-0.00017289,
39.706,8.73167,-0.00017201,
39.815,8.75333,-0.0001712,
39.922,8.775,-0.00017008,
40.024,8.79667,-0.00016926,
40.132,8.81833,-0.00016906,
40.24,8.84,-0.00016727,
40.344,8.86167,-0.00016664,
40.454,8.88333,-0.00016518,
40.559,8.905,-0.00016423,
40.665,8.92667,-0.00016386,
40.77,8.94833,-0.0001625,
40.875,8.97,-0.00016131,
40.978,8.99167,-0.00016066,
41.095,9.01333,-0.00015955,
41.192,9.035,-0.00015868,
41.293,9.05667,-0.00015755,
41.41,9.07833,-0.00015564,
41.512,9.1,-0.00015439,
41.629,9.12167,-0.00015312,
41.739,9.14333,-0.00015189,
41.838,9.165,-0.00015069,
41.948,9.18667,-0.00014955,
42.052,9.20833,-0.00014854,
42.159,9.23,-0.00014794,
42.274,9.25167,-0.00014662,
42.374,9.27333,-0.00014472,
42.48,9.295,-0.00014433,
42.595,9.31667,-0.00014356,
42.693,9.33833,-0.00014165,
42.804,9.36,-0.00013993,
42.914,9.38167,-0.0001389,
43.007,9.40333,-0.00013717,
43.116,9.425,-0.00013624,
43.226,9.44667,-0.00013536,
43.339,9.46833,-0.00013368,
43.445,9.49,-0.0001322,
43.544,9.51167,-0.00013068,
43.655,9.53333,-0.00012913,
43.762,9.555,-0.00012801,
43.866,9.57667,-0.0001272,
43.979,9.59833,-0.00012507,
44.08,9.62,-0.00012402,
44.193,9.64167,-0.00012266,
44.299,9.66333,-0.00012106,
44.411,9.685,-0.00012014,
44.51,9.70667,-0.00011879,
44.619,9.72833,-0.00011706,
44.729,9.75,-0.00011503,
44.83,9.77167,-0.00011424,
44.938,9.79333,-0.00011314,
45.042,9.815,-0.00011124,
45.145,9.83667,-0.00011027,
45.26,9.85833,-0.00010884,
45.372,9.88,-0.00010731,
45.482,9.90167,-0.00010519,
45.591,9.92333,-0.00010354,
45.703,9.945,-0.00010308,
45.811,9.96667,-0.00010092,
45.918,9.98833,-9.9401E-05,
46.034,10.01,-9.7299E-05,
46.135,10.03167,-9.6512E-05,
46.249,10.05333,-9.4827E-05,
46.353,10.075,-9.33E-05,
46.458,10.09667,-9.1737E-05,
46.566,10.11833,-9.0584E-05,
46.682,10.14,-8.9286E-05,
46.788,10.16167,-8.7572E-05,
46.898,10.18333,-8.6088E-05,
47.005,10.205,-8.4626E-05,
47.106,10.22667,-8.2459E-05,
47.222,10.24833,-8.2139E-05,
47.332,10.27,-7.8988E-05,
47.447,10.29167,-7.8301E-05,
47.551,10.31333,-7.6142E-05,
47.662,10.335,-7.4334E-05,
47.765,10.35667,-7.3073E-05,
47.877,10.37833,-7.1459E-05,
47.981,10.4,-7.0248E-05,
48.098,10.42167,-6.857E-05,
48.205,10.44333,-6.7279E-05,
48.311,10.465,-6.6255E-05,
48.424,10.48667,-6.4634E-05,
48.529,10.50833,-6.2381E-05,
48.642,10.53,-6.1651E-05,
48.755,10.55167,-6.0432E-05,
48.867,10.57333,-5.7956E-05,
48.975,10.595,-5.663E-05,
49.081,10.61667,-5.5261E-05,
49.193,10.63833,-5.4251E-05,
49.306,10.66,-5.2112E-05,
49.405,10.68167,-5.1138E-05,
49.52,10.70333,-4.8899E-05,
49.628,10.725,-4.7315E-05,
49.752,10.74667,-4.5413E-05,
49.856,10.76833,-4.4259E-05,
49.961,10.79,-4.2552E-05,
50.075,10.81167,-4.0694E-05,
50.192,10.83333,-3.821E-05,
50.297,10.855,-3.7452E-05,
50.403,10.87667,-3.5335E-05,
50.516,10.89833,-3.3369E-05,
50.634,10.92,-3.2114E-05,
50.733,10.94167,-3.0565E-05,
50.847,10.96333,-2.9742E-05,
50.966,10.985,-2.7991E-05,
51.085,11.00667,-2.5579E-05,
51.187,11.02833,-2.4928E-05,
51.297,11.05,-2.2294E-05,
51.411,11.07167,-2.0149E-05,
51.521,11.09333,-1.8492E-05,
51.632,11.115,-1.7287E-05,
51.745,11.13667,-1.5666E-05,
51.858,11.15833,-1.4361E-05,
51.968,11.18,-1.1956E-05,
52.083,11.20167,-1.0723E-05,
52.193,11.22333,-8.8934E-06,
52.305,11.245,-6.9632E-06,
52.416,11.26667,-5.1265E-06,
52.529,11.28833,-3.7925E-06,
52.643,11.31,-2.3651E-06,
52.754,11.33167,-7.0064E-07,
52.861,11.35333,1.567E-06,
52.977,11.375,3.3538E-06,
53.092,11.39667,6.1965E-06,
53.205,11.41833,7.3294E-06,
53.316,11.44,8.9651E-06,
53.434,11.46167,1.183E-05,
53.544,11.48333,1.3487E-05,
53.662,11.505,1.5518E-05,
53.771,11.52667,1.6737E-05,
53.88,11.54833,1.8962E-05,
54.004,11.57,2.026E-05,
54.111,11.59167,2.2528E-05,
54.221,11.61333,2.4703E-05,
54.338,11.635,2.6123E-05,
54.461,11.65667,2.8334E-05,
54.573,11.67833,2.9432E-05,
54.683,11.7,3.1635E-05,
54.797,11.72167,3.2775E-05,
54.911,11.74333,3.4519E-05,
55.033,11.765,3.6867E-05,
55.151,11.78667,3.93E-05,
55.265,11.80833,4.2538E-05,
55.373,11.83,4.3089E-05,
55.497,11.85167,4.4934E-05,
55.611,11.87333,4.7741E-05,
55.733,11.895,4.8049E-05,
55.84,11.91667,5.0949E-05,
55.956,11.93833,5.3196E-05,
56.067,11.96,5.578E-05,
56.189,11.98167,5.7438E-05,
56.295,12.00333,5.9067E-05,
56.421,12.025,6.1127E-05,
56.526,12.04667,6.2749E-05,
56.639,12.06833,6.4485E-05,
56.765,12.09,6.6575E-05,
56.874,12.11167,6.8024E-05,
56.995,12.13333,7.1284E-05,
57.11,12.155,7.3093E-05,
57.222,12.17667,7.4823E-05,
57.335,12.19833,7.6444E-05,
57.449,12.22,7.8361E-05,
57.569,12.24167,8.0407E-05,
57.686,12.26333,8.2805E-05,
57.802,12.285,8.4707E-05,
57.913,12.30667,8.6775E-05,
58.025,12.32833,8.8188E-05,
58.143,12.35,9.0795E-05,
58.256,12.37167,9.2158E-05,
58.376,12.39333,9.521E-05,
58.486,12.415,9.6437E-05,
58.61,12.43667,9.9173E-05,
58.721,12.45833,0.00010101,
58.836,12.48,0.00010233,
58.944,12.50167,0.00010478,
59.068,12.52333,0.00010751,
59.179,12.545,0.00010941,
59.287,12.56667,0.00011143,
59.407,12.58833,0.00011413,
59.535,12.61,0.0001165,
59.645,12.63167,0.00011856,
59.765,12.65333,0.00012083,
59.885,12.675,0.00012363,
59.998,12.69667,0.00012462,
60.112,12.71833,0.00012832,
60.228,12.74,0.00012936,
60.347,12.76167,0.0001314,
60.47,12.78333,0.00013323,
60.579,12.805,0.00013609,
60.698,12.82667,0.00013963,
60.816,12.84833,0.00014186,
60.93,12.87,0.000143,
61.044,12.89167,0.00014641,
61.165,12.91333,0.00014757,
61.276,12.935,0.00015045,
61.393,12.95667,0.00015233,
61.503,12.97833,0.00015485,
61.618,13,0.0001562,
61.72,13.02167,0.00015872,
61.851,13.04333,0.00016116,
61.969,13.065,0.000164,
62.082,13.08667,0.00016553,
62.198,13.10833,0.00016761,
62.319,13.13,0.00017032,
62.427,13.15167,0.00017246,
62.547,13.17333,0.00017522,
62.657,13.195,0.00017711,
62.773,13.21667,0.0001797,
62.887,13.23833,0.00018285,
63.01,13.26,0.00018507,
63.142,13.28167,0.00018743,
63.26,13.30333,0.000189,
63.369,13.325,0.00019172,
63.482,13.34667,0.00019426,
63.599,13.36833,0.00019695,
63.718,13.39,0.00019853,
63.84,13.41167,0.00020099,
63.952,13.43333,0.00020341,
64.064,13.455,0.00020623,
64.186,13.47667,0.00020907,
64.298,13.49833,0.00021117,
64.414,13.52,0.00021368,
64.532,13.54167,0.00021517,
64.652,13.56333,0.00021782,
64.765,13.585,0.00022085,
64.883,13.60667,0.00022311,
64.99,13.62833,0.00022504,
65.115,13.65,0.00022847,
65.234,13.67167,0.00023065,
65.35,13.69333,0.00023411,
65.459,13.715,0.00023771,
65.579,13.73667,0.00023962,
65.695,13.75833,0.00024327,
65.817,13.78,0.00024505,
65.925,13.80167,0.00024692,
66.043,13.82333,0.0002497,
66.164,13.845,0.00025156,
66.286,13.86667,0.00025419,
66.394,13.88833,0.00025656,
66.512,13.91,0.0002589,
66.632,13.93167,0.00026227,
66.74,13.95333,0.00026423,
66.854,13.975,0.00026696,
66.979,13.99667,0.00026947,
67.088,14.01833,0.00027193,
67.202,14.04,0.00027434,
67.322,14.06167,0.00027773,
67.436,14.08333,0.00027919,
67.551,14.105,0.00028324,
67.667,14.12667,0.00028526,
67.78,14.14833,0.00028999,
67.895,14.17,0.00029229,
68.012,14.19167,0.00029506,
68.131,14.21333,0.00029733,
68.256,14.235,0.00030022,
68.363,14.25667,0.00030286,
68.489,14.27833,0.0003047,
68.597,14.3,0.00030772,
68.71,14.32167,0.00031046,
68.827,14.34333,0.0003137,
68.938,14.365,0.00031611,
69.062,14.38667,0.00031882,
69.174,14.40833,0.00032138,
69.295,14.43,0.0003237,
69.415,14.45167,0.0003269,
69.525,14.47333,0.00032985,
69.641,14.495,0.00033267,
69.758,14.51667,0.00033458,
69.872,14.53833,0.000338,
69.991,14.56,0.00034093,
70.103,14.58167,0.00034367,
70.212,14.60333,0.00034615,
70.333,14.625,0.00034829,
70.448,14.64667,0.00035051,
70.566,14.66833,0.00035536,
70.68,14.69,0.00035963,
70.797,14.71167,0.00036295,
70.919,14.73333,0.00036613,
71.028,14.755,0.00036816,
71.144,14.77667,0.00037064,
71.257,14.79833,0.00037356,
71.377,14.82,0.00037629,
71.493,14.84167,0.00037958,
71.609,14.86333,0.00038143,
71.724,14.885,0.00038479,
71.834,14.90667,0.00038671,
71.952,14.92833,0.00038923,
72.069,14.95,0.00039203,
72.183,14.97167,0.00039562,
72.302,14.99333,0.0003976,
72.414,15.015,0.00040045,
72.528,15.03667,0.00040286,
72.645,15.05833,0.00040535,
72.762,15.08,0.00040867,
72.874,15.10167,0.00041095,
72.989,15.12333,0.00041394,
73.099,15.145,0.00041677,
73.224,15.16667,0.00041926,
73.335,15.18833,0.0004234,
73.453,15.21,0.0004265,
73.571,15.23167,0.00042968,
73.679,15.25333,0.00043259,
73.799,15.275,0.00043763,
73.915,15.29667,0.00044014,
74.027,15.31833,0.00044411,
74.137,15.34,0.00044675,
74.257,15.36167,0.00044931,
74.37,15.38333,0.00045192,
74.481,15.405,0.00045476,
74.592,15.42667,0.00045723,
74.703,15.44833,0.00045994,
74.823,15.47,0.00046305,
74.933,15.49167,0.00046583,
75.054,15.51333,0.00046829,
75.171,15.535,0.00047345,
75.286,15.55667,0.00047621,
75.4,15.57833,0.00047916,
75.515,15.6,0.00048152,
75.622,15.62167,0.00048448,
75.742,15.64333,0.00048731,
75.866,15.665,0.00048996,
75.97,15.68667,0.00049209,
76.086,15.70833,0.00049561,
76.202,15.73,0.0005018,
76.315,15.75167,0.00050428,
76.424,15.77333,0.00050841,
76.54,15.795,0.00051123,
76.656,15.81667,0.00051409,
76.769,15.83833,0.00051677,
76.887,15.86,0.00051993,
76.996,15.88167,0.00052193,
77.118,15.90333,0.00052477,
77.227,15.925,0.00052809,
77.346,15.94667,0.00053217,
77.466,15.96833,0.00053497,
77.569,15.99,0.00053738,
77.688,16.01167,0.00054037,
77.807,16.03333,0.00054331,
77.915,16.055,0.0005455,
78.034,16.07667,0.00054947,
78.137,16.09833,0.00055211,
78.256,16.12,0.00055602,
78.382,16.14167,0.00055904,
78.49,16.16333,0.000562,
78.6,16.185,0.00056427,
78.713,16.20667,0.00056693,
78.834,16.22833,0.00057051,
78.946,16.25,0.00057265,
79.059,16.27167,0.00057576,
79.17,16.29333,0.00057812,
79.28,16.315,0.00058139,
79.395,16.33667,0.00058375,
79.504,16.35833,0.00058681,
79.617,16.38,0.0005906,
79.741,16.40167,0.00059382,
79.855,16.42333,0.00059675,
79.973,16.445,0.00059999,
80.087,16.46667,0.00060298,
80.19,16.48833,0.00060516,
80.304,16.51,0.00060881,
80.418,16.53167,0.00061096,
80.532,16.55333,0.00061403,
80.643,16.575,0.00061779,
80.752,16.59667,0.00062175,
80.867,16.61833,0.0006248,
80.978,16.64,0.0006285,
81.094,16.66167,0.00063214,
81.207,16.68333,0.00063451,
81.322,16.705,0.00063784,
81.432,16.72667,0.00064017,
81.546,16.74833,0.00064284,
81.657,16.77,0.00064591,
81.776,16.79167,0.0006485,
81.886,16.81333,0.00065232,
82,16.835,0.00065573,
82.108,16.85667,0.00065836,
82.22,16.87833,0.0006607,
82.338,16.9,0.00066319,
82.451,16.92167,0.0006666,
82.565,16.94333,0.00066981,
82.677,16.965,0.00067342,
82.789,16.98667,0.00067647,
82.901,17.00833,0.00067864,
83.007,17.03,0.00068125,
83.124,17.05167,0.00068454,
83.231,17.07333,0.00068969,
83.349,17.095,0.00069181,
83.472,17.11667,0.00069584,
83.584,17.13833,0.000698,
83.692,17.16,0.00070085,
83.798,17.18167,0.00070355,
83.912,17.20333,0.00070769,
84.027,17.225,0.00071076,
84.137,17.24667,0.00071311,
84.25,17.26833,0.00071672,
84.361,17.29,0.00071963,
84.476,17.31167,0.00072277,
84.584,17.33333,0.00072596,
84.706,17.355,0.00073065,
84.809,17.37667,0.00073392,