File: test-folder/albAmel001r1.csv
#EXPORTTYPE:           ,DATA ALL
#FILE:                 ,albAmel001run1.ngb-sle
#FORMAT:               ,NETZSCH5
#FTYPE:                ,ANSI
#IDENTITY:             ,amelia 100
#DECIMAL:              ,POINT
#SEPARATOR:            ,COMMA
#MTYPE:                ,DIL
#INSTRUMENT:           ,NETZSCH DIL 402C
#PROJECT:              ,feldspar
#DATE/TIME:            ,8/13/2019 9:17:30 AM (UTC-5)
#CORR. FILE:           ,
#TEMPCAL:              ,TCALZERO.TMX
#LABORATORY:           ,Mineral Physics
#OPERATOR:             ,PAG
#REMARK:               ,colorless amelia alb per to (010) & (001), sample 1, thin rectangle
#SAMPLE:               ,albite
#SAMPLE LENGTH /mm:    ,9.742
#MATERIAL:             ,sapphire stnd
#MEASMODE:             ,Standard Expansion
#PURGE GAS 1:          ,ARGON
#FLOW RATE 1 /(ml/min):,75
#M.RANGE /µm:          ,500
#CORR. CODE:           ,010
#RANGE:                ,20.0°C/3.0(K/min)/900.0°C
#SEGMENT:              ,S1/1
#SEG. 1:               ,20.0°C/3.0(K/min)/900.0°C

##Temp./°C,Time/min,dL/Lo
 22.73400,  0.00000, 2.3791e-005
 22.75000,  0.21667, 2.6484e-005
 22.76000,  0.43333, 2.8403e-005
 22.75900,  0.65000, 2.9423e-005
 22.76100,  0.86667, 2.9860e-005
 22.76000,  1.08333, 2.9738e-005
 22.75500,  1.30000, 2.9394e-005
 22.75500,  1.51667, 2.9343e-005
 22.75800,  1.73333, 2.8992e-005
 22.76300,  1.95000, 2.9041e-005
 22.76900,  2.16667, 2.8352e-005
 22.77000,  2.38333, 2.7859e-005
 22.77600,  2.60000, 2.6978e-005
 22.78500,  2.81667, 2.6593e-005
 22.79500,  3.03333, 2.6241e-005
 22.80100,  3.25000, 2.5553e-005
 22.80700,  3.46667, 2.4505e-005
 22.81500,  3.68333, 2.4177e-005
 22.84500,  3.90000, 2.3224e-005
 22.91400,  4.11667, 2.2319e-005
 23.02500,  4.33333, 1.9532e-005
 23.17000,  4.55000, 1.6694e-005
 23.40500,  4.76667, 1.2678e-005
 23.71700,  4.98333, 8.2241e-006
 24.10700,  5.20000, 3.5206e-006
 24.58900,  5.41667,-2.1662e-006
 25.17600,  5.63333,-7.6777e-006
 25.82600,  5.85000,-1.3570e-005
 26.54900,  6.06667,-1.8630e-005
 27.34400,  6.28333,-2.3749e-005
 28.19700,  6.50000,-2.8449e-005
 29.10900,  6.71667,-3.1209e-005
 30.07200,  6.93333,-3.3471e-005
 31.04700,  7.15000,-3.4924e-005
 32.05800,  7.36667,-3.5487e-005
 33.06700,  7.58333,-3.4611e-005
 34.11200,  7.80000,-3.2650e-005
 35.15300,  8.01667,-2.9471e-005
 36.19000,  8.23333,-2.5907e-005
 37.23900,  8.45000,-2.0931e-005
 38.29000,  8.66667,-1.5463e-005
 39.34100,  8.88333,-8.9660e-006
 40.39000,  9.10000,-2.1470e-006
 41.44100,  9.31667, 5.0225e-006
 42.49600,  9.53333, 1.3186e-005
 43.54900,  9.75000, 2.0656e-005
 44.59900,  9.96667, 2.8813e-005
 45.65500, 10.18333, 3.7259e-005
 46.73600, 10.40000, 4.6258e-005
 47.81300, 10.61667, 5.5282e-005
 48.90600, 10.83333, 6.4538e-005
 50.01600, 11.05000, 7.3906e-005
 51.11600, 11.26667, 8.3343e-005
 52.22700, 11.48333, 9.2951e-005
 53.35700, 11.70000, 1.0317e-004
 54.48900, 11.91667, 1.1363e-004
 55.62300, 12.13333, 1.2393e-004
 56.77000, 12.35000, 1.3518e-004
 57.90600, 12.56667, 1.4619e-004
 59.05500, 12.78333, 1.5740e-004
 60.19800, 13.00000, 1.6935e-004
 61.35100, 13.21667, 1.8110e-004
 62.50300, 13.43333, 1.9377e-004
 63.66600, 13.65000, 2.0666e-004
 64.82100, 13.86667, 2.1955e-004
 65.97900, 14.08333, 2.3251e-004
 67.13300, 14.30000, 2.4573e-004
 68.28100, 14.51667, 2.5971e-004
 69.42700, 14.73333, 2.7347e-004
 70.57700, 14.95000, 2.8694e-004
 71.71400, 15.16667, 3.0076e-004
 72.85300, 15.38333, 3.1522e-004
 74.00500, 15.60000, 3.2943e-004
 75.13600, 15.81667, 3.4329e-004
 76.27700, 16.03333, 3.5774e-004
 77.41700, 16.25000, 3.7232e-004
 78.55000, 16.46667, 3.8661e-004
 79.68500, 16.68333, 4.0165e-004
 80.82200, 16.90000, 4.1611e-004
 81.93900, 17.11667, 4.3091e-004
 83.06900, 17.33333, 4.4548e-004
 84.17800, 17.55000, 4.6048e-004
 85.29800, 17.76667, 4.7545e-004
 86.42100, 17.98333, 4.9061e-004
 87.54500, 18.20000, 5.0549e-004
 88.65200, 18.41667, 5.2046e-004
 89.76300, 18.63333, 5.3586e-004
 90.86200, 18.85000, 5.5092e-004
 91.97200, 19.06667, 5.6606e-004
 93.07000, 19.28333, 5.8154e-004
 94.14700, 19.50000, 5.9664e-004
 95.25000, 19.71667, 6.1284e-004
 96.36400, 19.93333, 6.2778e-004
 97.45900, 20.15000, 6.4334e-004
 98.54100, 20.36667, 6.5854e-004
 99.63400, 20.58333, 6.7437e-004
100.713, 20.80000, 6.8965e-004
101.787, 21.01667, 7.0480e-004
102.872, 21.23333, 7.2050e-004
103.953, 21.45000, 7.3575e-004
105.029, 21.66667, 7.5106e-004
106.107, 21.88333, 7.6659e-004
107.17, 22.10000, 7.8149e-004
108.241, 22.31667, 7.9675e-004
109.317, 22.53333, 8.1229e-004
110.371, 22.75000, 8.2762e-004
111.451, 22.96667, 8.4286e-004
112.515, 23.18333, 8.5826e-004
113.571, 23.40000, 8.7330e-004
114.631, 23.61667, 8.8861e-004
115.687, 23.83333, 9.0360e-004
116.76, 24.05000, 9.1928e-004
117.825, 24.26667, 9.3540e-004
118.881, 24.48333, 9.5016e-004
119.934, 24.70000, 9.6529e-004
120.978, 24.91667, 9.8056e-004
122.039, 25.13333, 9.9599e-004
123.091, 25.35000, 1.0114e-003
124.144, 25.56667, 1.0269e-003
125.189, 25.78333, 1.0427e-003
126.237, 26.00000, 1.0583e-003
127.291, 26.21667, 1.0752e-003
128.32, 26.43333, 1.0901e-003
129.359, 26.65000, 1.1057e-003
130.397, 26.86667, 1.1227e-003
131.436, 27.08333, 1.1418e-003
132.474, 27.30000, 1.1577e-003
133.518, 27.51667, 1.1762e-003
134.551, 27.73333, 1.1921e-003
135.588, 27.95000, 1.2068e-003
136.62, 28.16667, 1.2258e-003
137.655, 28.38333, 1.2424e-003
138.681, 28.60000, 1.2582e-003
139.711, 28.81667, 1.2745e-003
140.736, 29.03333, 1.2915e-003
141.761, 29.25000, 1.3084e-003
142.779, 29.46667, 1.3237e-003
143.797, 29.68333, 1.3406e-003
144.812, 29.90000, 1.3575e-003
145.838, 30.11667, 1.3744e-003
146.858, 30.33333, 1.3896e-003
147.874, 30.55000, 1.4071e-003
148.888, 30.76667, 1.4224e-003
149.903, 30.98333, 1.4390e-003
150.917, 31.20000, 1.4575e-003
151.923, 31.41667, 1.4736e-003
152.926, 31.63333, 1.4911e-003
153.939, 31.85000, 1.5072e-003
154.943, 32.06667, 1.5256e-003
155.951, 32.28333, 1.5436e-003
156.944, 32.50000, 1.5588e-003
157.94, 32.71667, 1.5744e-003
158.925, 32.93333, 1.5942e-003
159.923, 33.15000, 1.6094e-003
160.908, 33.36667, 1.6245e-003
161.897, 33.58333, 1.6422e-003
162.873, 33.80000, 1.6572e-003
163.865, 34.01667, 1.6736e-003
164.86, 34.23333, 1.6902e-003
165.858, 34.45000, 1.7048e-003
166.863, 34.66667, 1.7192e-003
167.856, 34.88333, 1.7347e-003
168.86, 35.10000, 1.7509e-003
169.88, 35.31667, 1.7655e-003
170.9, 35.53333, 1.7789e-003
171.923, 35.75000, 1.7950e-003
172.945, 35.96667, 1.8103e-003
173.972, 36.18333, 1.8255e-003
175.008, 36.40000, 1.8404e-003
176.04, 36.61667, 1.8546e-003
177.067, 36.83333, 1.8691e-003
178.103, 37.05000, 1.8847e-003
179.141, 37.26667, 1.9005e-003
180.174, 37.48333, 1.9145e-003
181.208, 37.70000, 1.9295e-003
182.237, 37.91667, 1.9471e-003
183.26, 38.13333, 1.9632e-003
184.29, 38.35000, 1.9789e-003
185.306, 38.56667, 1.9937e-003
186.33, 38.78333, 2.0087e-003
187.347, 39.00000, 2.0257e-003
188.355, 39.21667, 2.0404e-003
189.358, 39.43333, 2.0578e-003
190.362, 39.65000, 2.0735e-003
191.363, 39.86667, 2.0898e-003
192.362, 40.08333, 2.1045e-003
193.361, 40.30000, 2.1210e-003
194.353, 40.51667, 2.1354e-003
195.346, 40.73333, 2.1501e-003
196.333, 40.95000, 2.1686e-003
197.33, 41.16667, 2.1836e-003
198.308, 41.38333, 2.1982e-003
199.297, 41.60000, 2.2145e-003
200.27, 41.81667, 2.2304e-003
201.249, 42.03333, 2.2452e-003
202.219, 42.25000, 2.2608e-003
203.198, 42.46667, 2.2772e-003
204.17, 42.68333, 2.2930e-003
205.138, 42.90000, 2.3074e-003
206.11, 43.11667, 2.3216e-003
207.071, 43.33333, 2.3388e-003
208.033, 43.55000, 2.3545e-003
208.997, 43.76667, 2.3691e-003
209.951, 43.98333, 2.3846e-003
210.908, 44.20000, 2.4005e-003
211.861, 44.41667, 2.4147e-003
212.811, 44.63333, 2.4290e-003
213.762, 44.85000, 2.4459e-003
214.698, 45.06667, 2.4617e-003
215.641, 45.28333, 2.4763e-003
216.586, 45.50000, 2.4905e-003
217.529, 45.71667, 2.5073e-003
218.457, 45.93333, 2.5218e-003
219.394, 46.15000, 2.5370e-003
220.329, 46.36667, 2.5507e-003
221.264, 46.58333, 2.5666e-003
222.192, 46.80000, 2.5819e-003
223.118, 47.01667, 2.5968e-003
224.052, 47.23333, 2.6115e-003
224.985, 47.45000, 2.6261e-003
225.901, 47.66667, 2.6418e-003
226.831, 47.88333, 2.6570e-003
227.758, 48.10000, 2.6707e-003
228.67, 48.31667, 2.6854e-003
229.586, 48.53333, 2.7013e-003
230.505, 48.75000, 2.7166e-003
231.42, 48.96667, 2.7312e-003
232.337, 49.18333, 2.7455e-003
233.252, 49.40000, 2.7606e-003
234.171, 49.61667, 2.7760e-003
235.084, 49.83333, 2.7900e-003
235.99, 50.05000, 2.8059e-003
236.896, 50.26667, 2.8194e-003
237.803, 50.48333, 2.8358e-003
238.713, 50.70000, 2.8506e-003
239.622, 50.91667, 2.8646e-003
240.527, 51.13333, 2.8791e-003
241.422, 51.35000, 2.8931e-003
242.314, 51.56667, 2.9067e-003
243.22, 51.78333, 2.9223e-003
244.124, 52.00000, 2.9361e-003
245.025, 52.21667, 2.9495e-003
245.923, 52.43333, 2.9628e-003
246.818, 52.65000, 2.9760e-003
247.717, 52.86667, 2.9893e-003
248.614, 53.08333, 3.0082e-003
249.508, 53.30000, 3.0214e-003
250.398, 53.51667, 3.0359e-003
251.294, 53.73333, 3.0501e-003
252.197, 53.95000, 3.0631e-003
253.079, 54.16667, 3.0780e-003
253.966, 54.38333, 3.0924e-003
254.851, 54.60000, 3.1085e-003
255.747, 54.81667, 3.1215e-003
256.631, 55.03333, 3.1380e-003
257.526, 55.25000, 3.1519e-003
258.4, 55.46667, 3.1653e-003
259.289, 55.68333, 3.1837e-003
260.17, 55.90000, 3.1970e-003
261.054, 56.11667, 3.2098e-003
261.927, 56.33333, 3.2268e-003
262.81, 56.55000, 3.2421e-003
263.694, 56.76667, 3.2555e-003
264.57, 56.98333, 3.2692e-003
265.441, 57.20000, 3.2831e-003
266.32, 57.41667, 3.2973e-003
267.195, 57.63333, 3.3108e-003
268.064, 57.85000, 3.3336e-003
268.927, 58.06667, 3.3458e-003
269.791, 58.28333, 3.3586e-003
270.665, 58.50000, 3.3714e-003
271.536, 58.71667, 3.3845e-003
272.413, 58.93333, 3.3969e-003
273.283, 59.15000, 3.4096e-003
274.153, 59.36667, 3.4627e-003
275.016, 59.58333, 3.4754e-003
275.888, 59.80000, 3.4878e-003
276.756, 60.01667, 3.5005e-003
277.621, 60.23333, 3.5134e-003
278.478, 60.45000, 3.5260e-003
279.34, 60.66667, 3.5385e-003
280.209, 60.88333, 3.5517e-003
281.063, 61.10000, 3.5642e-003
281.926, 61.31667, 3.5705e-003
282.779, 61.53333, 3.5827e-003
283.64, 61.75000, 3.5960e-003
284.494, 61.96667, 3.6078e-003
285.352, 62.18333, 3.6208e-003
286.206, 62.40000, 3.6390e-003
287.066, 62.61667, 3.6498e-003
287.92, 62.83333, 3.6616e-003
288.766, 63.05000, 3.6743e-003
289.614, 63.26667, 3.6863e-003
290.475, 63.48333, 3.6985e-003
291.325, 63.70000, 3.7108e-003
292.168, 63.91667, 3.7231e-003
293.021, 64.13333, 3.7356e-003
293.865, 64.35000, 3.7475e-003
294.718, 64.56667, 3.7596e-003
295.562, 64.78333, 3.7737e-003
296.417, 65.00000, 3.7883e-003
297.248, 65.21667, 3.8066e-003
298.09, 65.43333, 3.8183e-003
298.932, 65.65000, 3.8308e-003
299.766, 65.86667, 3.8476e-003
300.605, 66.08333, 3.8598e-003
301.443, 66.30000, 3.8746e-003
302.275, 66.51667, 3.8885e-003
303.107, 66.73333, 3.9030e-003
303.951, 66.95000, 3.9169e-003
304.775, 67.16667, 3.9326e-003
305.621, 67.38333, 3.9499e-003
306.455, 67.60000, 3.9616e-003
307.291, 67.81667, 3.9770e-003
308.126, 68.03333, 3.9881e-003
308.957, 68.25000, 4.0048e-003
309.787, 68.46667, 4.0165e-003
310.611, 68.68333, 4.0296e-003
311.447, 68.90000, 4.0460e-003
312.28, 69.11667, 4.0775e-003
313.108, 69.33333, 4.0893e-003
313.928, 69.55000, 4.1017e-003
314.765, 69.76667, 4.1147e-003
315.579, 69.98333, 4.1272e-003
316.403, 70.20000, 4.1382e-003
317.231, 70.41667, 4.1549e-003
318.05, 70.63333, 4.1667e-003
318.872, 70.85000, 4.1779e-003
319.691, 71.06667, 4.1974e-003
320.511, 71.28333, 4.2101e-003
321.325, 71.50000, 4.2317e-003
322.148, 71.71667, 4.2449e-003
322.969, 71.93333, 4.2564e-003
323.792, 72.15000, 4.2742e-003
324.613, 72.36667, 4.2853e-003
325.424, 72.58333, 4.2972e-003
326.244, 72.80000, 4.3289e-003
327.058, 73.01667, 4.3415e-003
327.873, 73.23333, 4.3522e-003
328.681, 73.45000, 4.3642e-003
329.496, 73.66667, 4.3754e-003
330.305, 73.88333, 4.3876e-003
331.117, 74.10000, 4.3997e-003
331.925, 74.31667, 4.4122e-003
332.731, 74.53333, 4.4252e-003
333.542, 74.75000, 4.4371e-003
334.343, 74.96667, 4.4489e-003
335.149, 75.18333, 4.4673e-003
335.95, 75.40000, 4.4789e-003
336.753, 75.61667, 4.4947e-003
337.55, 75.83333, 4.5060e-003
338.353, 76.05000, 4.5177e-003
339.158, 76.26667, 4.5324e-003
339.965, 76.48333, 4.5472e-003
340.769, 76.70000, 4.5618e-003
341.571, 76.91667, 4.5742e-003
342.371, 77.13333, 4.5866e-003
343.174, 77.35000, 4.5981e-003
343.969, 77.56667, 4.6109e-003
344.77, 77.78333, 4.6230e-003
345.571, 78.00000, 4.6346e-003
346.362, 78.21667, 4.6512e-003
347.156, 78.43333, 4.6652e-003
347.95, 78.65000, 4.6787e-003
348.752, 78.86667, 4.6935e-003
349.535, 79.08333, 4.7077e-003
350.326, 79.30000, 4.7204e-003
351.118, 79.51667, 4.7344e-003
351.911, 79.73333, 4.7465e-003
352.687, 79.95000, 4.7607e-003
353.472, 80.16667, 4.7749e-003
354.261, 80.38333, 4.7889e-003
355.045, 80.60000, 4.8014e-003
355.83, 80.81667, 4.8123e-003
356.615, 81.03333, 4.8262e-003
357.403, 81.25000, 4.8378e-003
358.184, 81.46667, 4.8537e-003
358.969, 81.68333, 4.8651e-003
359.75, 81.90000, 4.8788e-003
360.541, 82.11667, 4.8906e-003
361.323, 82.33333, 4.9050e-003
362.106, 82.55000, 4.9172e-003
362.878, 82.76667, 4.9315e-003
363.66, 82.98333, 4.9460e-003
364.425, 83.20000, 4.9618e-003
365.208, 83.41667, 4.9734e-003
365.985, 83.63333, 4.9863e-003
366.756, 83.85000, 5.0003e-003
367.53, 84.06667, 5.0137e-003
368.299, 84.28333, 5.0260e-003
369.066, 84.50000, 5.0411e-003
369.839, 84.71667, 5.0521e-003
370.604, 84.93333, 5.0665e-003
371.377, 85.15000, 5.0786e-003
372.145, 85.36667, 5.0930e-003
372.912, 85.58333, 5.1046e-003
373.678, 85.80000, 5.1179e-003
374.462, 86.01667, 5.1319e-003
375.233, 86.23333, 5.1451e-003
375.998, 86.45000, 5.1566e-003
376.763, 86.66667, 5.1709e-003
377.535, 86.88333, 5.1825e-003
378.304, 87.10000, 5.1961e-003
379.074, 87.31667, 5.2101e-003
379.834, 87.53333, 5.2218e-003
380.595, 87.75000, 5.2352e-003
381.356, 87.96667, 5.2480e-003
382.124, 88.18333, 5.2616e-003
382.88, 88.40000, 5.2749e-003
383.642, 88.61667, 5.2856e-003
384.402, 88.83333, 5.2995e-003
385.157, 89.05000, 5.3110e-003
385.921, 89.26667, 5.3251e-003
386.675, 89.48333, 5.3378e-003
387.433, 89.70000, 5.3522e-003
388.194, 89.91667, 5.3639e-003
388.953, 90.13333, 5.3769e-003
389.702, 90.35000, 5.3895e-003
390.455, 90.56667, 5.4004e-003
391.215, 90.78333, 5.4120e-003
391.968, 91.00000, 5.4256e-003
392.718, 91.21667, 5.4391e-003
393.471, 91.43333, 5.4511e-003
394.225, 91.65000, 5.4649e-003
394.971, 91.86667, 5.4776e-003
395.719, 92.08333, 5.4887e-003
396.466, 92.30000, 5.5027e-003
397.222, 92.51667, 5.5157e-003
397.963, 92.73333, 5.5271e-003
398.712, 92.95000, 5.5382e-003
399.455, 93.16667, 5.5517e-003
400.196, 93.38333, 5.5638e-003
400.936, 93.60000, 5.5755e-003
401.684, 93.81667, 5.5881e-003
402.426, 94.03333, 5.6004e-003
403.169, 94.25000, 5.6115e-003
403.911, 94.46667, 5.6243e-003
404.654, 94.68333, 5.6369e-003
405.397, 94.90000, 5.6486e-003
406.143, 95.11667, 5.6606e-003
406.89, 95.33333, 5.6727e-003
407.628, 95.55000, 5.6862e-003
408.374, 95.76667, 5.6991e-003
409.113, 95.98333, 5.7101e-003
409.846, 96.20000, 5.7234e-003
410.588, 96.41667, 5.7379e-003
411.319, 96.63333, 5.7493e-003
412.064, 96.85000, 5.7609e-003
412.791, 97.06667, 5.7751e-003
413.511, 97.28333, 5.7869e-003
414.231, 97.50000, 5.7984e-003
414.949, 97.71667, 5.8132e-003
415.673, 97.93333, 5.8246e-003
416.393, 98.15000, 5.8391e-003
417.108, 98.36667, 5.8506e-003
417.824, 98.58333, 5.8616e-003
418.546, 98.80000, 5.8724e-003
419.264, 99.01667, 5.8865e-003
419.977, 99.23333, 5.8991e-003
420.693, 99.45000, 5.9095e-003
421.423, 99.66667, 5.9196e-003
422.17, 99.88333, 5.9327e-003
422.902,100.1, 5.9431e-003
423.649,100.317, 5.9537e-003
424.399,100.533, 5.9654e-003
425.154,100.75, 5.9763e-003
425.909,100.967, 5.9882e-003
426.67,101.183, 5.9979e-003
427.429,101.4, 6.0086e-003
428.186,101.617, 6.0208e-003
428.948,101.833, 6.0335e-003
429.707,102.05, 6.0439e-003
430.474,102.267, 6.0546e-003
431.226,102.483, 6.0673e-003
431.981,102.7, 6.0808e-003
432.736,102.917, 6.0921e-003
433.484,103.133, 6.1034e-003
434.236,103.35, 6.1155e-003
434.983,103.567, 6.1298e-003
435.726,103.783, 6.1406e-003
436.458,104, 6.1512e-003
437.197,104.217, 6.1637e-003
437.933,104.433, 6.1749e-003
438.675,104.65, 6.1872e-003
439.42,104.867, 6.1979e-003
440.139,105.083, 6.2099e-003
440.88,105.3, 6.2208e-003
441.614,105.517, 6.2314e-003
442.341,105.733, 6.2448e-003
443.065,105.95, 6.2555e-003
443.791,106.167, 6.2683e-003
444.522,106.383, 6.2787e-003
445.236,106.6, 6.2907e-003
445.956,106.817, 6.3018e-003
446.669,107.033, 6.3143e-003
447.391,107.25, 6.3255e-003
448.097,107.467, 6.3356e-003
448.805,107.683, 6.3475e-003
449.517,107.9, 6.3582e-003
450.226,108.117, 6.3700e-003
450.941,108.333, 6.3808e-003
451.658,108.55, 6.3907e-003
452.366,108.767, 6.4027e-003
453.075,108.983, 6.4135e-003
453.784,109.2, 6.4265e-003
454.488,109.417, 6.4375e-003
455.194,109.633, 6.4480e-003
455.899,109.85, 6.4586e-003
456.612,110.067, 6.4716e-003
457.306,110.283, 6.4820e-003
458.006,110.5, 6.4924e-003
458.713,110.717, 6.5030e-003
459.411,110.933, 6.5149e-003
460.099,111.15, 6.5277e-003
460.8,111.367, 6.5395e-003
461.492,111.583, 6.5501e-003
462.187,111.8, 6.5618e-003
462.877,112.017, 6.5728e-003
463.563,112.233, 6.5833e-003
464.26,112.45, 6.5947e-003
464.955,112.667, 6.6065e-003
465.647,112.883, 6.6161e-003
466.347,113.1, 6.6287e-003
467.041,113.317, 6.6398e-003
467.735,113.533, 6.6506e-003
468.428,113.75, 6.6613e-003
469.116,113.967, 6.6726e-003
469.814,114.183, 6.6826e-003
470.505,114.4, 6.6928e-003
471.189,114.617, 6.7047e-003
471.88,114.833, 6.7165e-003
472.575,115.05, 6.7272e-003
473.255,115.267, 6.7390e-003
473.945,115.483, 6.7503e-003
474.626,115.7, 6.7603e-003
475.319,115.917, 6.7731e-003
476,116.133, 6.7828e-003
476.686,116.35, 6.7931e-003
477.357,116.567, 6.8047e-003
478.044,116.783, 6.8149e-003
478.722,117, 6.8285e-003
479.412,117.217, 6.8380e-003
480.083,117.433, 6.8481e-003
480.777,117.65, 6.8590e-003
481.453,117.867, 6.8686e-003
482.136,118.083, 6.8809e-003
482.822,118.3, 6.8931e-003
483.503,118.517, 6.9034e-003
484.186,118.733, 6.9131e-003
484.86,118.95, 6.9234e-003
485.534,119.167, 6.9358e-003
486.213,119.383, 6.9454e-003
486.886,119.6, 6.9570e-003
487.564,119.817, 6.9666e-003
488.252,120.033, 6.9792e-003
488.929,120.25, 6.9895e-003
489.609,120.467, 7.0008e-003
490.291,120.683, 7.0109e-003
490.969,120.9, 7.0206e-003
491.643,121.117, 7.0338e-003
492.32,121.333, 7.0437e-003
493.008,121.55, 7.0553e-003
493.675,121.767, 7.0652e-003
494.356,121.983, 7.0752e-003
495.027,122.2, 7.0868e-003
495.697,122.417, 7.0981e-003
496.377,122.633, 7.1091e-003
497.048,122.85, 7.1184e-003
497.723,123.067, 7.1305e-003
498.4,123.283, 7.1406e-003
499.07,123.5, 7.1509e-003
499.752,123.717, 7.1623e-003
500.42,123.933, 7.1738e-003
501.091,124.15, 7.1838e-003
501.766,124.367, 7.1957e-003
502.436,124.583, 7.2059e-003
503.117,124.8, 7.2176e-003
503.785,125.017, 7.2276e-003
504.459,125.233, 7.2384e-003
505.137,125.45, 7.2484e-003
505.806,125.667, 7.2581e-003
506.474,125.883, 7.2693e-003
507.138,126.1, 7.2792e-003
507.798,126.317, 7.2902e-003
508.477,126.533, 7.3000e-003
509.14,126.75, 7.3120e-003
509.811,126.967, 7.3234e-003
510.49,127.183, 7.3351e-003
511.159,127.4, 7.3448e-003
511.829,127.617, 7.3551e-003
512.492,127.833, 7.3652e-003
513.161,128.05, 7.3749e-003
513.829,128.267, 7.3866e-003
514.497,128.483, 7.3982e-003
515.155,128.7, 7.4089e-003
515.819,128.917, 7.4185e-003
516.491,129.133, 7.4292e-003
517.15,129.35, 7.4394e-003
517.82,129.567, 7.4510e-003
518.483,129.783, 7.4619e-003
519.14,130, 7.4724e-003
519.807,130.217, 7.4824e-003
520.473,130.433, 7.4926e-003
521.137,130.65, 7.5038e-003
521.79,130.867, 7.5150e-003
522.445,131.083, 7.5246e-003
523.109,131.3, 7.5345e-003
523.774,131.517, 7.5455e-003
524.434,131.733, 7.5566e-003
525.105,131.95, 7.5668e-003
525.757,132.167, 7.5781e-003
526.421,132.383, 7.5881e-003
527.084,132.6, 7.5998e-003
527.74,132.817, 7.6092e-003
528.4,133.033, 7.6207e-003
529.062,133.25, 7.6313e-003
529.725,133.467, 7.6408e-003
530.386,133.683, 7.6509e-003
531.05,133.9, 7.6623e-003
531.697,134.117, 7.6723e-003
532.357,134.333, 7.6839e-003
533.006,134.55, 7.6940e-003
533.66,134.767, 7.7052e-003
534.311,134.983, 7.7145e-003
534.966,135.2, 7.7256e-003
535.613,135.417, 7.7352e-003
536.281,135.633, 7.7463e-003
536.925,135.85, 7.7561e-003
537.576,136.067, 7.7675e-003
538.232,136.283, 7.7770e-003
538.882,136.5, 7.7885e-003
539.544,136.717, 7.7998e-003
540.192,136.933, 7.8100e-003
540.85,137.15, 7.8198e-003
541.502,137.367, 7.8315e-003
542.157,137.583, 7.8407e-003
542.807,137.8, 7.8523e-003
543.457,138.017, 7.8621e-003
544.112,138.233, 7.8744e-003
544.76,138.45, 7.8841e-003
545.417,138.667, 7.8966e-003
546.064,138.883, 7.9069e-003
546.722,139.1, 7.9190e-003
547.371,139.317, 7.9287e-003
548.014,139.533, 7.9402e-003
548.656,139.75, 7.9506e-003
549.299,139.967, 7.9613e-003
549.948,140.183, 7.9738e-003
550.573,140.4, 7.9862e-003
551.199,140.617, 7.9966e-003
551.831,140.833, 8.0082e-003
552.457,141.05, 8.0181e-003
553.082,141.267, 8.0297e-003
553.706,141.483, 8.0398e-003
554.341,141.7, 8.0502e-003
554.978,141.917, 8.0613e-003
555.611,142.133, 8.0724e-003
556.247,142.35, 8.0818e-003
556.898,142.567, 8.0931e-003
557.548,142.783, 8.1023e-003
558.202,143, 8.1133e-003
558.866,143.217, 8.1232e-003
559.537,143.433, 8.1336e-003
560.21,143.65, 8.1432e-003
560.881,143.867, 8.1529e-003
561.546,144.083, 8.1643e-003
562.211,144.3, 8.1738e-003
562.883,144.517, 8.1854e-003
563.552,144.733, 8.1953e-003
564.22,144.95, 8.2049e-003
564.879,145.167, 8.2167e-003
565.56,145.383, 8.2291e-003
566.223,145.6, 8.2412e-003
566.884,145.817, 8.2509e-003
567.54,146.033, 8.2605e-003
568.2,146.25, 8.2718e-003
568.852,146.467, 8.2815e-003
569.496,146.683, 8.2924e-003
570.155,146.9, 8.3020e-003
570.815,147.117, 8.3141e-003
571.464,147.333, 8.3257e-003
572.115,147.55, 8.3352e-003
572.765,147.767, 8.3449e-003
573.412,147.983, 8.3561e-003
574.064,148.2, 8.3658e-003
574.711,148.417, 8.3770e-003
575.351,148.633, 8.3868e-003
575.988,148.85, 8.3981e-003
576.633,149.067, 8.4078e-003
577.277,149.283, 8.4203e-003
577.918,149.5, 8.4294e-003
578.559,149.717, 8.4401e-003
579.195,149.933, 8.4493e-003
579.837,150.15, 8.4589e-003
580.477,150.367, 8.4704e-003
581.103,150.583, 8.4803e-003
581.741,150.8, 8.4899e-003
582.365,151.017, 8.5008e-003
583.006,151.233, 8.5102e-003
583.633,151.45, 8.5195e-003
584.264,151.667, 8.5310e-003
584.894,151.883, 8.5414e-003
585.53,152.1, 8.5510e-003
586.154,152.317, 8.5634e-003
586.783,152.533, 8.5729e-003
587.412,152.75, 8.5841e-003
588.04,152.967, 8.5932e-003
588.661,153.183, 8.6043e-003
589.302,153.4, 8.6138e-003
589.931,153.617, 8.6252e-003
590.553,153.833, 8.6339e-003
591.177,154.05, 8.6467e-003
591.798,154.267, 8.6551e-003
592.424,154.483, 8.6644e-003
593.056,154.7, 8.6739e-003
593.678,154.917, 8.6833e-003
594.299,155.133, 8.6925e-003
594.923,155.35, 8.7052e-003
595.55,155.567, 8.7152e-003
596.181,155.783, 8.7244e-003
596.807,156, 8.7339e-003
597.418,156.217, 8.7430e-003
598.039,156.433, 8.7542e-003
598.656,156.65, 8.7634e-003
599.289,156.867, 8.7741e-003
599.916,157.083, 8.7843e-003
600.533,157.3, 8.7944e-003
601.151,157.517, 8.8041e-003
601.771,157.733, 8.8149e-003
602.381,157.95, 8.8238e-003
603.003,158.167, 8.8328e-003
603.613,158.383, 8.8440e-003
604.235,158.6, 8.8532e-003
604.857,158.817, 8.8642e-003
605.473,159.033, 8.8732e-003
606.092,159.25, 8.8825e-003
606.707,159.467, 8.8951e-003
607.326,159.683, 8.9060e-003
607.941,159.9, 8.9153e-003
608.561,160.117, 8.9270e-003
609.179,160.333, 8.9369e-003
609.801,160.55, 8.9466e-003
610.416,160.767, 8.9577e-003
611.026,160.983, 8.9670e-003
611.641,161.2, 8.9785e-003
612.26,161.417, 8.9878e-003
612.881,161.633, 8.9971e-003
613.493,161.85, 9.0079e-003
614.11,162.067, 9.0189e-003
614.719,162.283, 9.0276e-003
615.339,162.5, 9.0395e-003
615.957,162.717, 9.0491e-003
616.574,162.933, 9.0577e-003
617.187,163.15, 9.0694e-003
617.8,163.367, 9.0783e-003
618.419,163.583, 9.0899e-003
619.034,163.8, 9.0987e-003
619.652,164.017, 9.1106e-003
620.258,164.233, 9.1198e-003
620.875,164.45, 9.1287e-003
621.488,164.667, 9.1399e-003
622.099,164.883, 9.1496e-003
622.719,165.1, 9.1601e-003
623.33,165.317, 9.1696e-003
623.942,165.533, 9.1805e-003
624.554,165.75, 9.1895e-003
625.171,165.967, 9.1985e-003
625.787,166.183, 9.2100e-003
626.396,166.4, 9.2194e-003
627.011,166.617, 9.2311e-003
627.629,166.833, 9.2399e-003
628.233,167.05, 9.2509e-003
628.841,167.267, 9.2604e-003
629.457,167.483, 9.2721e-003
630.066,167.7, 9.2809e-003
630.669,167.917, 9.2917e-003
631.277,168.133, 9.3006e-003
631.879,168.35, 9.3102e-003
632.491,168.567, 9.3215e-003
633.105,168.783, 9.3302e-003
633.718,169, 9.3421e-003
634.32,169.217, 9.3539e-003
634.93,169.433, 9.3633e-003
635.532,169.65, 9.3722e-003
636.144,169.867, 9.3820e-003
636.754,170.083, 9.3933e-003
637.363,170.3, 9.4026e-003
637.967,170.517, 9.4135e-003
638.569,170.733, 9.4225e-003
639.179,170.95, 9.4318e-003
639.781,171.167, 9.4432e-003
640.396,171.383, 9.4541e-003
641.003,171.6, 9.4636e-003
641.607,171.817, 9.4727e-003
642.214,172.033, 9.4820e-003
642.829,172.25, 9.4925e-003
643.433,172.467, 9.5019e-003
644.042,172.683, 9.5112e-003
644.648,172.9, 9.5223e-003
645.242,173.117, 9.5317e-003
645.849,173.333, 9.5431e-003
646.444,173.55, 9.5538e-003
647.047,173.767, 9.5628e-003
647.653,173.983, 9.5725e-003
648.244,174.2, 9.5832e-003
648.839,174.417, 9.5929e-003
649.427,174.633, 9.6045e-003
650.02,174.85, 9.6142e-003
650.601,175.067, 9.6252e-003
651.189,175.283, 9.6366e-003
651.77,175.5, 9.6462e-003
652.349,175.717, 9.6552e-003
652.927,175.933, 9.6663e-003
653.508,176.15, 9.6779e-003
654.096,176.367, 9.6866e-003
654.676,176.583, 9.6954e-003
655.269,176.8, 9.7050e-003
655.875,177.017, 9.7163e-003
656.477,177.233, 9.7252e-003
657.087,177.45, 9.7338e-003
657.7,177.667, 9.7425e-003
658.309,177.883, 9.7537e-003
658.927,178.1, 9.7626e-003
659.549,178.317, 9.7718e-003
660.165,178.533, 9.7829e-003
660.784,178.75, 9.7919e-003
661.41,178.967, 9.8027e-003
662.03,179.183, 9.8118e-003
662.641,179.4, 9.8226e-003
663.258,179.617, 9.8317e-003
663.87,179.833, 9.8425e-003
664.489,180.05, 9.8511e-003
665.102,180.267, 9.8625e-003
665.715,180.483, 9.8715e-003
666.329,180.7, 9.8833e-003
666.94,180.917, 9.8919e-003
667.547,181.133, 9.9010e-003
668.152,181.35, 9.9131e-003
668.767,181.567, 9.9220e-003
669.374,181.783, 9.9316e-003
669.984,182, 9.9423e-003
670.582,182.217, 9.9538e-003
671.181,182.433, 9.9627e-003
671.787,182.65, 9.9718e-003
672.384,182.867, 9.9809e-003
672.98,183.083, 9.9925e-003
673.576,183.3, 1.0002e-002
674.163,183.517, 1.0012e-002
674.761,183.733, 1.0022e-002
675.367,183.95, 1.0033e-002
675.96,184.167, 1.0044e-002
676.556,184.383, 1.0053e-002
677.152,184.6, 1.0064e-002
677.741,184.817, 1.0073e-002
678.345,185.033, 1.0085e-002
678.935,185.25, 1.0094e-002
679.527,185.467, 1.0105e-002
680.118,185.683, 1.0114e-002
680.708,185.9, 1.0125e-002
681.301,186.117, 1.0135e-002
681.89,186.333, 1.0146e-002
682.478,186.55, 1.0155e-002
683.064,186.767, 1.0167e-002
683.645,186.983, 1.0176e-002
684.225,187.2, 1.0187e-002
684.815,187.417, 1.0197e-002
685.395,187.633, 1.0205e-002
685.978,187.85, 1.0217e-002
686.564,188.067, 1.0226e-002
687.145,188.283, 1.0235e-002
687.732,188.5, 1.0247e-002
688.314,188.717, 1.0256e-002
688.897,188.933, 1.0267e-002
689.483,189.15, 1.0278e-002
690.068,189.367, 1.0287e-002
690.644,189.583, 1.0296e-002
691.228,189.8, 1.0307e-002
691.809,190.017, 1.0316e-002
692.379,190.233, 1.0328e-002
692.953,190.45, 1.0340e-002
693.535,190.667, 1.0349e-002
694.108,190.883, 1.0358e-002
694.673,191.1, 1.0369e-002
695.249,191.317, 1.0380e-002
695.823,191.533, 1.0390e-002
696.388,191.75, 1.0400e-002
696.961,191.967, 1.0409e-002
697.532,192.183, 1.0420e-002
698.101,192.4, 1.0429e-002
698.665,192.617, 1.0439e-002
699.238,192.833, 1.0448e-002
699.804,193.05, 1.0459e-002
700.373,193.267, 1.0468e-002
700.94,193.483, 1.0479e-002
701.504,193.7, 1.0488e-002
702.078,193.917, 1.0499e-002
702.65,194.133, 1.0508e-002
703.221,194.35, 1.0517e-002
703.787,194.567, 1.0528e-002
704.358,194.783, 1.0537e-002
704.927,195, 1.0546e-002
705.494,195.217, 1.0557e-002
706.062,195.433, 1.0566e-002
706.63,195.65, 1.0578e-002
707.196,195.867, 1.0587e-002
707.768,196.083, 1.0598e-002
708.338,196.3, 1.0607e-002
708.904,196.517, 1.0616e-002
709.472,196.733, 1.0625e-002
710.04,196.95, 1.0636e-002
710.605,197.167, 1.0645e-002
711.181,197.383, 1.0657e-002
711.751,197.6, 1.0666e-002
712.312,197.817, 1.0677e-002
712.895,198.033, 1.0686e-002
713.466,198.25, 1.0697e-002
714.029,198.467, 1.0706e-002
714.602,198.683, 1.0715e-002
715.174,198.9, 1.0726e-002
715.733,199.117, 1.0737e-002
716.302,199.333, 1.0746e-002
716.855,199.55, 1.0757e-002
717.421,199.767, 1.0766e-002
717.997,199.983, 1.0777e-002
718.562,200.2, 1.0785e-002
719.125,200.417, 1.0794e-002
719.693,200.633, 1.0806e-002
720.265,200.85, 1.0815e-002
720.833,201.067, 1.0825e-002
721.399,201.283, 1.0834e-002
721.961,201.5, 1.0845e-002
722.533,201.717, 1.0853e-002
723.106,201.933, 1.0865e-002
723.676,202.15, 1.0874e-002
724.241,202.367, 1.0885e-002
724.811,202.583, 1.0894e-002
725.38,202.8, 1.0903e-002
725.949,203.017, 1.0914e-002
726.52,203.233, 1.0924e-002
727.088,203.45, 1.0935e-002
727.656,203.667, 1.0945e-002
728.225,203.883, 1.0955e-002
728.783,204.1, 1.0965e-002
729.339,204.317, 1.0974e-002
729.903,204.533, 1.0986e-002
730.451,204.75, 1.0994e-002
731.01,204.967, 1.1006e-002
731.565,205.183, 1.1015e-002
732.111,205.4, 1.1026e-002
732.666,205.617, 1.1035e-002
733.212,205.833, 1.1047e-002
733.753,206.05, 1.1056e-002
734.304,206.267, 1.1067e-002
734.844,206.483, 1.1076e-002
735.391,206.7, 1.1085e-002
735.944,206.917, 1.1097e-002
736.493,207.133, 1.1105e-002
737.052,207.35, 1.1116e-002
737.609,207.567, 1.1125e-002
738.171,207.783, 1.1133e-002
738.734,208, 1.1144e-002
739.317,208.217, 1.1153e-002
739.903,208.433, 1.1161e-002
740.478,208.65, 1.1173e-002
741.07,208.867, 1.1181e-002
741.657,209.083, 1.1190e-002
742.248,209.3, 1.1201e-002
742.835,209.517, 1.1210e-002
743.428,209.733, 1.1221e-002
744.018,209.95, 1.1232e-002
744.601,210.167, 1.1241e-002
745.199,210.383, 1.1250e-002
745.788,210.6, 1.1261e-002
746.373,210.817, 1.1270e-002
746.96,211.033, 1.1282e-002
747.532,211.25, 1.1291e-002
748.118,211.467, 1.1301e-002
748.698,211.683, 1.1310e-002
749.272,211.9, 1.1322e-002
749.859,212.117, 1.1330e-002
750.436,212.333, 1.1339e-002
751.013,212.55, 1.1350e-002
751.598,212.767, 1.1359e-002
752.174,212.983, 1.1371e-002
752.744,213.2, 1.1380e-002
753.323,213.417, 1.1388e-002
753.891,213.633, 1.1400e-002
754.464,213.85, 1.1409e-002
755.036,214.067, 1.1420e-002
755.612,214.283, 1.1429e-002
756.188,214.5, 1.1440e-002
756.758,214.717, 1.1450e-002
757.331,214.933, 1.1458e-002
757.895,215.15, 1.1470e-002
758.467,215.367, 1.1478e-002
759.039,215.583, 1.1490e-002
759.601,215.8, 1.1501e-002
760.168,216.017, 1.1510e-002
760.734,216.233, 1.1519e-002
761.301,216.45, 1.1530e-002
761.87,216.667, 1.1539e-002
762.435,216.883, 1.1550e-002
763.003,217.1, 1.1559e-002
763.578,217.317, 1.1570e-002
764.133,217.533, 1.1579e-002
764.701,217.75, 1.1594e-002
765.272,217.967, 1.1605e-002
765.838,218.183, 1.1614e-002
766.412,218.4, 1.1625e-002
766.982,218.617, 1.1633e-002
767.548,218.833, 1.1643e-002
768.105,219.05, 1.1654e-002
768.667,219.267, 1.1662e-002
769.221,219.483, 1.1674e-002
769.779,219.7, 1.1681e-002
770.346,219.917, 1.1690e-002
770.906,220.133, 1.1702e-002
771.463,220.35, 1.1710e-002
772.029,220.567, 1.1719e-002
772.585,220.783, 1.1730e-002
773.148,221, 1.1739e-002
773.713,221.217, 1.1747e-002
774.272,221.433, 1.1757e-002
774.831,221.65, 1.1767e-002
775.388,221.867, 1.1778e-002
775.949,222.083, 1.1787e-002
776.516,222.3, 1.1799e-002
777.075,222.517, 1.1807e-002
777.631,222.733, 1.1818e-002
778.188,222.95, 1.1826e-002
778.763,223.167, 1.1835e-002
779.321,223.383, 1.1847e-002
779.877,223.6, 1.1856e-002
780.434,223.817, 1.1867e-002
780.995,224.033, 1.1876e-002
781.549,224.25, 1.1885e-002
782.106,224.467, 1.1893e-002
782.66,224.683, 1.1904e-002
783.216,224.9, 1.1913e-002
783.767,225.117, 1.1922e-002
784.322,225.333, 1.1934e-002
784.879,225.55, 1.1942e-002
785.432,225.767, 1.1954e-002
785.981,225.983, 1.1963e-002
786.526,226.2, 1.1972e-002
787.062,226.417, 1.1983e-002
787.595,226.633, 1.1993e-002
788.111,226.85, 1.2001e-002
788.638,227.067, 1.2012e-002
789.165,227.283, 1.2021e-002
789.68,227.5, 1.2033e-002
790.203,227.717, 1.2041e-002
790.723,227.933, 1.2052e-002
791.243,228.15, 1.2060e-002
791.762,228.367, 1.2069e-002
792.271,228.583, 1.2077e-002
792.776,228.8, 1.2089e-002
793.28,229.017, 1.2099e-002
793.763,229.233, 1.2107e-002
794.241,229.45, 1.2120e-002
794.725,229.667, 1.2128e-002
795.204,229.883, 1.2137e-002
795.687,230.1, 1.2145e-002
796.191,230.317, 1.2156e-002
796.696,230.533, 1.2164e-002
797.22,230.75, 1.2173e-002
797.733,230.967, 1.2184e-002
798.258,231.183, 1.2192e-002
798.775,231.4, 1.2200e-002
799.289,231.617, 1.2211e-002
799.803,231.833, 1.2220e-002
800.311,232.05, 1.2231e-002
800.817,232.267, 1.2239e-002
801.32,232.483, 1.2248e-002
801.84,232.7, 1.2256e-002
802.36,232.917, 1.2269e-002
802.871,233.133, 1.2277e-002
803.386,233.35, 1.2288e-002
803.913,233.567, 1.2297e-002
804.431,233.783, 1.2307e-002
804.944,234, 1.2316e-002
805.458,234.217, 1.2324e-002
805.973,234.433, 1.2332e-002
806.495,234.65, 1.2343e-002
807.017,234.867, 1.2351e-002
807.532,235.083, 1.2362e-002
808.048,235.3, 1.2370e-002
808.562,235.517, 1.2378e-002
809.071,235.733, 1.2389e-002
809.58,235.95, 1.2397e-002
810.099,236.167, 1.2405e-002
810.61,236.383, 1.2413e-002
811.125,236.6, 1.2420e-002
811.65,236.817, 1.2433e-002
812.173,237.033, 1.2441e-002
812.71,237.25, 1.2449e-002
813.257,237.467, 1.2461e-002
813.795,237.683, 1.2468e-002
814.341,237.9, 1.2475e-002
814.89,238.117, 1.2484e-002
815.44,238.333, 1.2495e-002
815.988,238.55, 1.2504e-002
816.547,238.767, 1.2516e-002
817.09,238.983, 1.2524e-002
817.628,239.2, 1.2533e-002
818.171,239.417, 1.2542e-002
818.72,239.633, 1.2554e-002
819.263,239.85, 1.2563e-002
819.806,240.067, 1.2571e-002
820.337,240.283, 1.2580e-002
820.873,240.5, 1.2588e-002
821.408,240.717, 1.2600e-002
821.954,240.933, 1.2608e-002
822.497,241.15, 1.2620e-002
823.032,241.367, 1.2628e-002
823.586,241.583, 1.2637e-002
824.129,241.8, 1.2648e-002
824.675,242.017, 1.2657e-002
825.216,242.233, 1.2669e-002
825.764,242.45, 1.2677e-002
826.307,242.667, 1.2686e-002
826.851,242.883, 1.2697e-002
827.4,243.1, 1.2705e-002
827.951,243.317, 1.2714e-002
828.498,243.533, 1.2722e-002
829.049,243.75, 1.2731e-002
829.597,243.967, 1.2743e-002
830.156,244.183, 1.2751e-002
830.709,244.4, 1.2760e-002
831.26,244.617, 1.2768e-002
831.816,244.833, 1.2777e-002
832.369,245.05, 1.2790e-002
832.923,245.267, 1.2800e-002
833.476,245.483, 1.2809e-002
834.027,245.7, 1.2818e-002
834.581,245.917, 1.2830e-002
835.14,246.133, 1.2838e-002
835.695,246.35, 1.2846e-002
836.258,246.567, 1.2855e-002
836.815,246.783, 1.2863e-002
837.379,247, 1.2876e-002
837.934,247.217, 1.2885e-002
838.5,247.433, 1.2894e-002
839.06,247.65, 1.2902e-002
839.617,247.867, 1.2915e-002
840.172,248.083, 1.2923e-002
840.731,248.3, 1.2932e-002
841.291,248.517, 1.2945e-002
841.858,248.733, 1.2954e-002
842.426,248.95, 1.2963e-002
842.991,249.167, 1.2975e-002
843.556,249.383, 1.2984e-002
844.118,249.6, 1.2993e-002
844.684,249.817, 1.3001e-002
845.244,250.033, 1.3014e-002
845.812,250.25, 1.3023e-002
846.373,250.467, 1.3036e-002
846.938,250.683, 1.3045e-002
847.496,250.9, 1.3053e-002
848.064,251.117, 1.3063e-002
848.622,251.333, 1.3075e-002
849.187,251.55, 1.3083e-002
849.746,251.767, 1.3092e-002
850.31,251.983, 1.3100e-002
850.866,252.2, 1.3110e-002
851.42,252.417, 1.3123e-002
851.983,252.633, 1.3132e-002
852.531,252.85, 1.3142e-002
853.07,253.067, 1.3154e-002
853.603,253.283, 1.3164e-002
854.136,253.5, 1.3173e-002
854.688,253.717, 1.3182e-002
855.249,253.933, 1.3190e-002
855.828,254.15, 1.3202e-002
856.401,254.367, 1.3211e-002
856.975,254.583, 1.3219e-002
857.544,254.8, 1.3228e-002
858.114,255.017, 1.3236e-002
858.673,255.233, 1.3250e-002
859.229,255.45, 1.3259e-002
859.778,255.667, 1.3267e-002
860.324,255.883, 1.3276e-002
860.872,256.1, 1.3284e-002
861.423,256.317, 1.3297e-002
861.974,256.533, 1.3306e-002
862.535,256.75, 1.3315e-002
863.095,256.967, 1.3323e-002
863.661,257.183, 1.3336e-002
864.23,257.4, 1.3345e-002
864.803,257.617, 1.3353e-002
865.374,257.833, 1.3362e-002
865.94,258.05, 1.3375e-002
866.501,258.267, 1.3383e-002
867.078,258.483, 1.3392e-002
867.644,258.7, 1.3401e-002
868.211,258.917, 1.3410e-002
868.783,259.133, 1.3424e-002
869.351,259.35, 1.3432e-002
869.917,259.567, 1.3441e-002
870.475,259.783, 1.3449e-002
871.051,260, 1.3462e-002
871.615,260.217, 1.3472e-002
872.184,260.433, 1.3480e-002
872.754,260.65, 1.3488e-002
873.318,260.867, 1.3498e-002
873.882,261.083, 1.3506e-002
874.446,261.3, 1.3519e-002
875.009,261.517, 1.3529e-002
875.574,261.733, 1.3537e-002
876.126,261.95, 1.3545e-002
876.688,262.167, 1.3554e-002
877.245,262.383, 1.3563e-002
877.787,262.6, 1.3576e-002
878.323,262.817, 1.3585e-002
878.858,263.033, 1.3593e-002
879.396,263.25, 1.3602e-002
879.932,263.467, 1.3611e-002
880.47,263.683, 1.3618e-002
881.014,263.9, 1.3633e-002
881.561,264.117, 1.3642e-002
882.111,264.333, 1.3648e-002
882.656,264.55, 1.3657e-002
883.192,264.767, 1.3665e-002
883.712,264.983, 1.3677e-002
884.198,265.2, 1.3686e-002
884.679,265.417, 1.3694e-002
885.14,265.633, 1.3702e-002
885.613,265.85, 1.3709e-002
886.093,266.067, 1.3717e-002
886.599,266.283, 1.3724e-002
887.119,266.5, 1.3732e-002
887.662,266.717, 1.3745e-002
888.212,266.933, 1.3753e-002
888.768,267.15, 1.3762e-002
889.328,267.367, 1.3771e-002
889.901,267.583, 1.3786e-002
890.472,267.8, 1.3794e-002
891.04,268.017, 1.3804e-002
891.601,268.233, 1.3813e-002
892.159,268.45, 1.3821e-002
892.716,268.667, 1.3830e-002
893.269,268.883, 1.3844e-002
893.819,269.1, 1.3853e-002
894.365,269.317, 1.3861e-002
894.899,269.533, 1.3870e-002
895.445,269.75, 1.3882e-002
895.982,269.967, 1.3890e-002
896.517,270.183, 1.3902e-002
897.061,270.4, 1.3910e-002
897.598,270.617, 1.3919e-002
898.136,270.833, 1.3927e-002
898.675,271.05, 1.3936e-002
899.213,271.267, 1.3948e-002
899.748,271.483, 1.3957e-002
900.271,271.7, 1.3965e-002
900.8,271.917, 1.3973e-002
901.338,272.133, 1.3981e-002
901.87,272.35, 1.3990e-002
902.405,272.567, 1.3998e-002
902.941,272.783, 1.4006e-002
903.472,273, 1.4019e-002
904.004,273.217, 1.4028e-002
904.527,273.433, 1.4037e-002
905.054,273.65, 1.4044e-002
905.574,273.867, 1.4053e-002
906.089,274.083, 1.4061e-002
906.598,274.3, 1.4069e-002
907.108,274.517, 1.4077e-002
907.601,274.733, 1.4092e-002
908.109,274.95, 1.4101e-002
908.594,275.167, 1.4109e-002
909.075,275.383, 1.4117e-002
909.548,275.6, 1.4126e-002
910.008,275.817, 1.4133e-002
910.453,276.033, 1.4146e-002
910.893,276.25, 1.4154e-002
911.314,276.467, 1.4162e-002
911.726,276.683, 1.4169e-002
912.136,276.9, 1.4176e-002
912.54,277.117, 1.4183e-002
912.929,277.333, 1.4190e-002
913.302,277.55, 1.4196e-002
913.648,277.767, 1.4203e-002
913.959,277.983, 1.4214e-002
914.279,278.2, 1.4220e-002
914.61,278.417, 1.4226e-002
914.975,278.633, 1.4230e-002
915.397,278.85, 1.4235e-002
915.863,279.067, 1.4240e-002
916.386,279.283, 1.4246e-002
916.939,279.5, 1.4253e-002
917.498,279.717, 1.4260e-002
918.062,279.933, 1.4268e-002
918.618,280.15, 1.4276e-002
919.177,280.367, 1.4291e-002
919.734,280.583, 1.4299e-002
920.295,280.8, 1.4307e-002
920.859,281.017, 1.4315e-002
921.434,281.233, 1.4322e-002
922.024,281.45, 1.4330e-002
922.59,281.667, 1.4343e-002
923.155,281.883, 1.4352e-002
923.713,282.1, 1.4361e-002
924.27,282.317, 1.4369e-002
924.807,282.533, 1.4377e-002
925.321,282.75, 1.4385e-002
925.864,282.967, 1.4399e-002
926.411,283.183, 1.4406e-002
926.945,283.4, 1.4418e-002
927.489,283.617, 1.4427e-002
928.022,283.833, 1.4434e-002
928.544,284.05, 1.4443e-002
929.073,284.267, 1.4451e-002
929.6,284.483, 1.4458e-002
930.126,284.7, 1.4465e-002
930.647,284.917, 1.4472e-002
931.19,285.133, 1.4484e-002
931.737,285.35, 1.4492e-002
932.3,285.567, 1.4499e-002
932.849,285.783, 1.4506e-002
933.416,286, 1.4514e-002
933.968,286.217, 1.4523e-002
934.503,286.433, 1.4536e-002
935.053,286.65, 1.4543e-002
935.617,286.867, 1.4552e-002
936.176,287.083, 1.4560e-002
936.728,287.3, 1.4567e-002
937.27,287.517, 1.4575e-002
937.817,287.733, 1.4589e-002
938.356,287.95, 1.4597e-002
938.914,288.167, 1.4604e-002
939.446,288.383, 1.4616e-002
939.991,288.6, 1.4624e-002
940.562,288.817, 1.4632e-002
941.138,289.033, 1.4640e-002
941.706,289.25, 1.4648e-002
942.28,289.467, 1.4656e-002
942.865,289.683, 1.4665e-002
943.443,289.9, 1.4673e-002
944.024,290.117, 1.4681e-002
944.598,290.333, 1.4689e-002
945.165,290.55, 1.4698e-002
945.735,290.767, 1.4706e-002
946.299,290.983, 1.4720e-002
946.859,291.2, 1.4729e-002
947.409,291.417, 1.4737e-002
947.942,291.633, 1.4745e-002
948.471,291.85, 1.4753e-002
948.991,292.067, 1.4762e-002
949.512,292.283, 1.4770e-002
950.058,292.5, 1.4778e-002
950.637,292.717, 1.4784e-002
951.223,292.933, 1.4791e-002
951.82,293.15, 1.4800e-002
952.241,293.302, 1.4813e-002