File: test-folder/albAmel100r1.csv
#EXPORTTYPE:           ,DATA ALL
#FILE:                 ,albAmel100run1.ngb-sle
#FORMAT:               ,NETZSCH5
#FTYPE:                ,ANSI
#IDENTITY:             ,albite amelia 100
#DECIMAL:              ,POINT
#SEPARATOR:            ,COMMA
#MTYPE:                ,DIL
#INSTRUMENT:           ,NETZSCH DIL 402C
#PROJECT:              ,feldspar
#DATE/TIME:            ,8/12/2019 9:43:37 AM (UTC-5)
#CORR. FILE:           ,
#TEMPCAL:              ,TCALZERO.TMX
#LABORATORY:           ,Mineral Physics
#OPERATOR:             ,PAG
#REMARK:               ,colorless amelia alb per to (010) & (001), sample 1, thin rectangle
#SAMPLE:               ,albite
#SAMPLE LENGTH /mm:    ,11.13
#MATERIAL:             ,sapphire stnd
#MEASMODE:             ,Standard Expansion
#PURGE GAS 1:          ,ARGON
#FLOW RATE 1 /(ml/min):,75
#M.RANGE /µm:          ,500
#CORR. CODE:           ,010
#RANGE:                ,20.0°C/3.0(K/min)/1000.0°C
#SEGMENT:              ,S1/1
#SEG. 1:               ,20.0°C/3.0(K/min)/1000.0°C

##Temp./°C,Time/min,dL/Lo
  22.81000,  0.00000, 2.4334e-005
  22.81500,  0.23833, 2.4673e-005
  22.81600,  0.47667, 2.5219e-005
  22.82300,  0.71500, 2.5887e-005
  22.82800,  0.95333, 2.6484e-005
  22.83200,  1.19167, 2.6681e-005
  22.81300,  1.43000, 2.6849e-005
  22.81800,  1.66833, 2.6862e-005
  22.81200,  1.90667, 2.6763e-005
  22.80400,  2.14500, 2.6694e-005
  22.78800,  2.38333, 2.6434e-005
  22.77600,  2.62167, 2.6360e-005
  22.78100,  2.86000, 2.6182e-005
  22.76400,  3.09833, 2.5746e-005
  22.76000,  3.33667, 2.5448e-005
  22.74800,  3.57500, 2.5126e-005
  22.74800,  3.81333, 2.4598e-005
  22.79000,  4.05167, 2.3629e-005
  22.88500,  4.29000, 2.1579e-005
  23.03700,  4.52833, 1.8937e-005
  23.28600,  4.76667, 1.5967e-005
  23.62300,  5.00500, 1.2672e-005
  24.06500,  5.24333, 9.0277e-006
  24.61800,  5.48167, 5.9091e-006
  25.27900,  5.72000, 2.6218e-006
  26.06300,  5.95833, 7.5652e-007
  26.94900,  6.19667, 9.6720e-008
  27.90200,  6.43500, 9.3153e-007
  28.92900,  6.67333, 2.6942e-006
  30.01700,  6.91167, 6.7184e-006
  31.15300,  7.15000, 1.2821e-005
  32.32500,  7.38833, 2.0401e-005
  33.55100,  7.62667, 2.9531e-005
  34.76900,  7.86500, 3.9910e-005
  35.97300,  8.10333, 5.1373e-005
  37.19500,  8.34167, 6.4609e-005
  38.41000,  8.58000, 7.8361e-005
  39.61700,  8.81833, 9.3406e-005
  40.83500,  9.05667, 1.1040e-004
  42.05400,  9.29500, 1.2884e-004
  43.27100,  9.53333, 1.4673e-004
  44.49300,  9.77167, 1.6565e-004
  45.71600, 10.01000, 1.8461e-004
  46.93200, 10.24833, 2.0375e-004
  48.17000, 10.48667, 2.2393e-004
  49.40500, 10.72500, 2.4370e-004
  50.65400, 10.96333, 2.6467e-004
  51.92800, 11.20167, 2.8575e-004
  53.20800, 11.44000, 3.0713e-004
  54.48400, 11.67833, 3.2881e-004
  55.75700, 11.91667, 3.5028e-004
  57.04400, 12.15500, 3.7345e-004
  58.33500, 12.39333, 3.9571e-004
  59.63300, 12.63167, 4.1930e-004
  60.92900, 12.87000, 4.4252e-004
  62.22700, 13.10833, 4.6691e-004
  63.51800, 13.34667, 4.9140e-004
  64.82300, 13.58500, 5.1602e-004
  66.12000, 13.82333, 5.4128e-004
  67.40900, 14.06167, 5.6711e-004
  68.71600, 14.30000, 5.9255e-004
  69.99300, 14.53833, 6.1829e-004
  71.27900, 14.77667, 6.4428e-004
  72.54800, 15.01500, 6.7097e-004
  73.83500, 15.25333, 6.9755e-004
  75.12900, 15.49167, 7.2447e-004
  76.38600, 15.73000, 7.5107e-004
  77.64800, 15.96833, 7.7815e-004
  78.91200, 16.20667, 8.0379e-004
  80.16400, 16.44500, 8.3088e-004
  81.42000, 16.68333, 8.5758e-004
  82.67500, 16.92167, 8.8444e-004
  83.91300, 17.16000, 9.1196e-004
  85.16700, 17.39833, 9.3873e-004
  86.40600, 17.63667, 9.6590e-004
  87.64300, 17.87500, 9.9255e-004
  88.86300, 18.11333, 1.0196e-003
  90.09600, 18.35167, 1.0464e-003
  91.31600, 18.59000, 1.0734e-003
  92.53500, 18.82833, 1.1000e-003
  93.74100, 19.06667, 1.1269e-003
  94.97100, 19.30500, 1.1541e-003
  96.17500, 19.54333, 1.1806e-003
  97.37800, 19.78167, 1.2073e-003
  98.57400, 20.02000, 1.2344e-003
  99.77200, 20.25833, 1.2613e-003
 100.951, 20.49667, 1.2874e-003
 102.141, 20.73500, 1.3139e-003
 103.336, 20.97333, 1.3408e-003
 104.516, 21.21167, 1.3678e-003
 105.69, 21.45000, 1.3939e-003
 106.857, 21.68833, 1.4204e-003
 108.038, 21.92667, 1.4471e-003
 109.222, 22.16500, 1.4738e-003
 110.38, 22.40333, 1.4999e-003
 111.558, 22.64167, 1.5259e-003
 112.727, 22.88000, 1.5531e-003
 113.896, 23.11833, 1.5798e-003
 115.062, 23.35667, 1.6059e-003
 116.22, 23.59500, 1.6320e-003
 117.382, 23.83333, 1.6589e-003
 118.533, 24.07167, 1.6850e-003
 119.697, 24.31000, 1.7114e-003
 120.843, 24.54833, 1.7376e-003
 121.999, 24.78667, 1.7637e-003
 123.157, 25.02500, 1.7899e-003
 124.297, 25.26333, 1.8159e-003
 125.436, 25.50167, 1.8422e-003
 126.577, 25.74000, 1.8682e-003
 127.716, 25.97833, 1.8942e-003
 128.859, 26.21667, 1.9202e-003
 129.982, 26.45500, 1.9459e-003
 131.122, 26.69333, 1.9721e-003
 132.263, 26.93167, 1.9986e-003
 133.391, 27.17000, 2.0235e-003
 134.522, 27.40833, 2.0493e-003
 135.65, 27.64667, 2.0754e-003
 136.774, 27.88500, 2.1014e-003
 137.913, 28.12333, 2.1273e-003
 139.039, 28.36167, 2.1534e-003
 140.162, 28.60000, 2.1789e-003
 141.285, 28.83833, 2.2049e-003
 142.394, 29.07667, 2.2301e-003
 143.526, 29.31500, 2.2562e-003
 144.645, 29.55333, 2.2819e-003
 145.762, 29.79167, 2.3071e-003
 146.891, 30.03000, 2.3329e-003
 147.993, 30.26833, 2.3588e-003
 149.109, 30.50667, 2.3844e-003
 150.218, 30.74500, 2.4103e-003
 151.336, 30.98333, 2.4355e-003
 152.448, 31.22167, 2.4610e-003
 153.551, 31.46000, 2.4868e-003
 154.653, 31.69833, 2.5123e-003
 155.753, 31.93667, 2.5375e-003
 156.861, 32.17500, 2.5631e-003
 157.976, 32.41333, 2.5890e-003
 159.08, 32.65167, 2.6139e-003
 160.178, 32.89000, 2.6392e-003
 161.269, 33.12833, 2.6646e-003
 162.365, 33.36667, 2.6900e-003
 163.46, 33.60500, 2.7150e-003
 164.553, 33.84333, 2.7403e-003
 165.625, 34.08167, 2.7656e-003
 166.729, 34.32000, 2.7908e-003
 167.822, 34.55833, 2.8158e-003
 168.906, 34.79667, 2.8408e-003
 169.998, 35.03500, 2.8665e-003
 171.085, 35.27333, 2.8916e-003
 172.17, 35.51167, 2.9171e-003
 173.246, 35.75000, 2.9426e-003
 174.336, 35.98833, 2.9677e-003
 175.423, 36.22667, 2.9932e-003
 176.509, 36.46500, 3.0174e-003
 177.579, 36.70333, 3.0428e-003
 178.662, 36.94167, 3.0691e-003
 179.74, 37.18000, 3.0935e-003
 180.805, 37.41833, 3.1178e-003
 181.872, 37.65667, 3.1434e-003
 182.945, 37.89500, 3.1678e-003
 184.016, 38.13333, 3.1929e-003
 185.087, 38.37167, 3.2177e-003
 186.169, 38.61000, 3.2434e-003
 187.229, 38.84833, 3.2679e-003
 188.297, 39.08667, 3.2927e-003
 189.372, 39.32500, 3.3174e-003
 190.432, 39.56333, 3.3420e-003
 191.499, 39.80167, 3.3667e-003
 192.55, 40.04000, 3.3919e-003
 193.61, 40.27833, 3.4168e-003
 194.675, 40.51667, 3.4414e-003
 195.731, 40.75500, 3.4657e-003
 196.794, 40.99333, 3.4908e-003
 197.855, 41.23167, 3.5155e-003
 198.903, 41.47000, 3.5395e-003
 199.952, 41.70833, 3.5649e-003
 201.009, 41.94667, 3.5894e-003
 202.052, 42.18500, 3.6139e-003
 203.101, 42.42333, 3.6386e-003
 204.148, 42.66167, 3.6632e-003
 205.198, 42.90000, 3.6871e-003
 206.241, 43.13833, 3.7121e-003
 207.285, 43.37667, 3.7366e-003
 208.334, 43.61500, 3.7603e-003
 209.364, 43.85333, 3.7850e-003
 210.397, 44.09167, 3.8092e-003
 211.443, 44.33000, 3.8333e-003
 212.488, 44.56833, 3.8580e-003
 213.522, 44.80667, 3.8824e-003
 214.552, 45.04500, 3.9064e-003
 215.583, 45.28333, 3.9310e-003
 216.612, 45.52167, 3.9552e-003
 217.655, 45.76000, 3.9786e-003
 218.689, 45.99833, 4.0032e-003
 219.711, 46.23667, 4.0268e-003
 220.739, 46.47500, 4.0515e-003
 221.767, 46.71333, 4.0752e-003
 222.786, 46.95167, 4.0995e-003
 223.809, 47.19000, 4.1230e-003
 224.821, 47.42833, 4.1470e-003
 225.839, 47.66667, 4.1710e-003
 226.855, 47.90500, 4.1951e-003
 227.875, 48.14333, 4.2188e-003
 228.889, 48.38167, 4.2431e-003
 229.908, 48.62000, 4.2659e-003
 230.919, 48.85833, 4.2901e-003
 231.929, 49.09667, 4.3139e-003
 232.938, 49.33500, 4.3378e-003
 233.953, 49.57333, 4.3615e-003
 234.965, 49.81167, 4.3856e-003
 235.965, 50.05000, 4.4085e-003
 236.97, 50.28833, 4.4327e-003
 237.975, 50.52667, 4.4565e-003
 238.967, 50.76500, 4.4801e-003
 239.972, 51.00333, 4.5040e-003
 240.97, 51.24167, 4.5273e-003
 241.974, 51.48000, 4.5507e-003
 242.974, 51.71833, 4.5747e-003
 243.975, 51.95667, 4.5986e-003
 244.958, 52.19500, 4.6217e-003
 245.96, 52.43333, 4.6456e-003
 246.948, 52.67167, 4.6694e-003
 247.929, 52.91000, 4.6923e-003
 248.928, 53.14833, 4.7149e-003
 249.916, 53.38667, 4.7386e-003
 250.898, 53.62500, 4.7618e-003
 251.893, 53.86333, 4.7851e-003
 252.877, 54.10167, 4.8083e-003
 253.867, 54.34000, 4.8327e-003
 254.846, 54.57833, 4.8548e-003
 255.826, 54.81667, 4.8780e-003
 256.801, 55.05500, 4.9012e-003
 257.78, 55.29333, 4.9243e-003
 258.747, 55.53167, 4.9471e-003
 259.727, 55.77000, 4.9702e-003
 260.704, 56.00833, 4.9929e-003
 261.678, 56.24667, 5.0166e-003
 262.65, 56.48500, 5.0392e-003
 263.624, 56.72333, 5.0638e-003
 264.606, 56.96167, 5.0863e-003
 265.571, 57.20000, 5.1098e-003
 266.539, 57.43833, 5.1327e-003
 267.5, 57.67667, 5.1549e-003
 268.469, 57.91500, 5.1776e-003
 269.431, 58.15333, 5.2001e-003
 270.399, 58.39167, 5.2238e-003
 271.365, 58.63000, 5.2463e-003
 272.323, 58.86833, 5.2689e-003
 273.282, 59.10667, 5.2920e-003
 274.242, 59.34500, 5.3147e-003
 275.194, 59.58333, 5.3373e-003
 276.151, 59.82167, 5.3594e-003
 277.103, 60.06000, 5.3824e-003
 278.059, 60.29833, 5.4046e-003
 279.009, 60.53667, 5.4275e-003
 279.961, 60.77500, 5.4499e-003
 280.911, 61.01333, 5.4726e-003
 281.861, 61.25167, 5.4951e-003
 282.81, 61.49000, 5.5179e-003
 283.763, 61.72833, 5.5410e-003
 284.71, 61.96667, 5.5638e-003
 285.656, 62.20500, 5.5846e-003
 286.588, 62.44333, 5.6096e-003
 287.519, 62.68167, 5.6321e-003
 288.461, 62.92000, 5.6543e-003
 289.403, 63.15833, 5.6763e-003
 290.348, 63.39667, 5.6984e-003
 291.276, 63.63500, 5.7205e-003
 292.208, 63.87333, 5.7429e-003
 293.134, 64.11167, 5.7646e-003
 294.078, 64.35000, 5.7879e-003
 295.007, 64.58833, 5.8104e-003
 295.944, 64.82667, 5.8312e-003
 296.871, 65.06500, 5.8536e-003
 297.798, 65.30333, 5.8762e-003
 298.725, 65.54167, 5.8978e-003
 299.654, 65.78000, 5.9195e-003
 300.58, 66.01833, 5.9408e-003
 301.502, 66.25667, 5.9627e-003
 302.432, 66.49500, 5.9850e-003
 303.354, 66.73333, 6.0077e-003
 304.282, 66.97167, 6.0294e-003
 305.206, 67.21000, 6.0512e-003
 306.125, 67.44833, 6.0727e-003
 307.034, 67.68667, 6.0937e-003
 307.953, 67.92500, 6.1159e-003
 308.867, 68.16333, 6.1377e-003
 309.776, 68.40167, 6.1578e-003
 310.695, 68.64000, 6.1804e-003
 311.6, 68.87833, 6.2018e-003
 312.523, 69.11667, 6.2236e-003
 313.43, 69.35500, 6.2453e-003
 314.343, 69.59333, 6.2669e-003
 315.254, 69.83167, 6.2884e-003
 316.158, 70.07000, 6.3101e-003
 317.063, 70.30833, 6.3309e-003
 317.974, 70.54667, 6.3536e-003
 318.875, 70.78500, 6.3741e-003
 319.785, 71.02333, 6.3955e-003
 320.687, 71.26167, 6.4174e-003
 321.593, 71.50000, 6.4395e-003
 322.494, 71.73833, 6.4604e-003
 323.393, 71.97667, 6.4821e-003
 324.287, 72.21500, 6.5032e-003
 325.182, 72.45333, 6.5247e-003
 326.081, 72.69167, 6.5481e-003
 326.975, 72.93000, 6.5684e-003
 327.864, 73.16833, 6.5897e-003
 328.759, 73.40667, 6.6109e-003
 329.649, 73.64500, 6.6323e-003
 330.534, 73.88333, 6.6536e-003
 331.427, 74.12167, 6.6757e-003
 332.316, 74.36000, 6.6958e-003
 333.213, 74.59833, 6.7171e-003
 334.1, 74.83667, 6.7392e-003
 334.983, 75.07500, 6.7607e-003
 335.874, 75.31333, 6.7804e-003
 336.749, 75.55167, 6.8014e-003
 337.631, 75.79000, 6.8229e-003
 338.524, 76.02833, 6.8440e-003
 339.409, 76.26667, 6.8653e-003
 340.293, 76.50500, 6.8861e-003
 341.159, 76.74333, 6.9069e-003
 342.034, 76.98167, 6.9275e-003
 342.913, 77.22000, 6.9482e-003
 343.792, 77.45833, 6.9690e-003
 344.666, 77.69667, 6.9911e-003
 345.545, 77.93500, 7.0124e-003
 346.416, 78.17333, 7.0336e-003
 347.288, 78.41167, 7.0526e-003
 348.16, 78.65000, 7.0740e-003
 349.036, 78.88833, 7.0948e-003
 349.914, 79.12667, 7.1156e-003
 350.78, 79.36500, 7.1364e-003
 351.648, 79.60333, 7.1568e-003
 352.517, 79.84167, 7.1773e-003
 353.389, 80.08000, 7.1992e-003
 354.254, 80.31833, 7.2202e-003
 355.127, 80.55667, 7.2403e-003
 355.993, 80.79500, 7.2613e-003
 356.856, 81.03333, 7.2818e-003
 357.722, 81.27167, 7.3019e-003
 358.574, 81.51000, 7.3219e-003
 359.434, 81.74833, 7.3428e-003
 360.282, 81.98667, 7.3632e-003
 361.153, 82.22500, 7.3833e-003
 362.002, 82.46333, 7.4047e-003
 362.858, 82.70167, 7.4258e-003
 363.715, 82.94000, 7.4474e-003
 364.561, 83.17833, 7.4680e-003
 365.412, 83.41667, 7.4898e-003
 366.257, 83.65500, 7.5108e-003
 367.096, 83.89333, 7.5318e-003
 367.935, 84.13167, 7.5527e-003
 368.765, 84.37000, 7.5742e-003
 369.596, 84.60833, 7.5942e-003
 370.427, 84.84667, 7.6138e-003
 371.266, 85.08500, 7.6344e-003
 372.112, 85.32333, 7.6545e-003
 372.95, 85.56167, 7.6750e-003
 373.805, 85.80000, 7.6956e-003
 374.659, 86.03833, 7.7153e-003
 375.519, 86.27667, 7.7356e-003
 376.389, 86.51500, 7.7544e-003
 377.266, 86.75333, 7.7752e-003
 378.142, 86.99167, 7.7956e-003
 379.023, 87.23000, 7.8155e-003
 379.905, 87.46833, 7.8361e-003
 380.793, 87.70667, 7.8576e-003
 381.681, 87.94500, 7.8784e-003
 382.561, 88.18333, 7.8989e-003
 383.442, 88.42167, 7.9185e-003
 384.315, 88.66000, 7.9399e-003
 385.2, 88.89833, 7.9594e-003
 386.06, 89.13667, 7.9807e-003
 386.935, 89.37500, 8.0023e-003
 387.793, 89.61333, 8.0229e-003
 388.66, 89.85167, 8.0439e-003
 389.525, 90.09000, 8.0646e-003
 390.379, 90.32833, 8.0849e-003
 391.236, 90.56667, 8.1069e-003
 392.087, 90.80500, 8.1261e-003
 392.935, 91.04333, 8.1468e-003
 393.781, 91.28167, 8.1678e-003
 394.627, 91.52000, 8.1886e-003
 395.474, 91.75833, 8.2092e-003
 396.314, 91.99667, 8.2297e-003
 397.155, 92.23500, 8.2488e-003
 397.994, 92.47333, 8.2690e-003
 398.826, 92.71167, 8.2897e-003
 399.656, 92.95000, 8.3099e-003
 400.496, 93.18833, 8.3295e-003
 401.319, 93.42667, 8.3491e-003
 402.145, 93.66500, 8.3692e-003
 402.971, 93.90333, 8.3880e-003
 403.789, 94.14167, 8.4082e-003
 404.609, 94.38000, 8.4282e-003
 405.422, 94.61833, 8.4483e-003
 406.243, 94.85667, 8.4679e-003
 407.073, 95.09500, 8.4866e-003
 407.887, 95.33333, 8.5072e-003
 408.7, 95.57167, 8.5268e-003
 409.517, 95.81000, 8.5472e-003
 410.334, 96.04833, 8.5651e-003
 411.15, 96.28667, 8.5850e-003
 411.957, 96.52500, 8.6046e-003
 412.769, 96.76333, 8.6234e-003
 413.575, 97.00167, 8.6431e-003
 414.38, 97.24000, 8.6632e-003
 415.186, 97.47833, 8.6821e-003
 415.995, 97.71667, 8.7020e-003
 416.792, 97.95500, 8.7203e-003
 417.59, 98.19333, 8.7403e-003
 418.389, 98.43167, 8.7602e-003
 419.195, 98.67000, 8.7791e-003
 419.989, 98.90833, 8.7972e-003
 420.785, 99.14667, 8.8169e-003
 421.582, 99.38500, 8.8366e-003
 422.375, 99.62333, 8.8570e-003
 423.183, 99.86167, 8.8751e-003
 423.971,100.1, 8.8936e-003
 424.767,100.338, 8.9125e-003
 425.561,100.577, 8.9317e-003
 426.357,100.815, 8.9516e-003
 427.141,101.053, 8.9695e-003
 427.929,101.292, 8.9885e-003
 428.727,101.53, 9.0089e-003
 429.521,101.768, 9.0265e-003
 430.31,102.007, 9.0463e-003
 431.111,102.245, 9.0653e-003
 431.9,102.483, 9.0848e-003
 432.681,102.722, 9.1022e-003
 433.475,102.96, 9.1225e-003
 434.261,103.198, 9.1422e-003
 435.05,103.437, 9.1604e-003
 435.839,103.675, 9.1781e-003
 436.616,103.913, 9.1973e-003
 437.406,104.152, 9.2164e-003
 438.189,104.39, 9.2357e-003
 438.978,104.628, 9.2548e-003
 439.763,104.867, 9.2735e-003
 440.552,105.105, 9.2927e-003
 441.339,105.343, 9.3110e-003
 442.122,105.582, 9.3295e-003
 442.903,105.82, 9.3485e-003
 443.684,106.058, 9.3676e-003
 444.465,106.297, 9.3863e-003
 445.245,106.535, 9.4054e-003
 446.027,106.773, 9.4239e-003
 446.804,107.012, 9.4418e-003
 447.581,107.25, 9.4609e-003
 448.348,107.488, 9.4790e-003
 449.13,107.727, 9.4981e-003
 449.911,107.965, 9.5168e-003
 450.682,108.203, 9.5358e-003
 451.462,108.442, 9.5548e-003
 452.234,108.68, 9.5722e-003
 453.008,108.918, 9.5918e-003
 453.787,109.157, 9.6094e-003
 454.563,109.395, 9.6281e-003
 455.334,109.633, 9.6463e-003
 456.109,109.872, 9.6653e-003
 456.888,110.11, 9.6845e-003
 457.655,110.348, 9.7018e-003
 458.43,110.587, 9.7197e-003
 459.202,110.825, 9.7404e-003
 459.971,111.063, 9.7577e-003
 460.745,111.302, 9.7769e-003
 461.508,111.54, 9.7956e-003
 462.279,111.778, 9.8140e-003
 463.045,112.017, 9.8321e-003
 463.821,112.255, 9.8514e-003
 464.575,112.493, 9.8707e-003
 465.347,112.732, 9.8878e-003
 466.111,112.97, 9.9067e-003
 466.876,113.208, 9.9252e-003
 467.641,113.447, 9.9427e-003
 468.403,113.685, 9.9612e-003
 469.173,113.923, 9.9797e-003
 469.94,114.162, 9.9991e-003
 470.705,114.4, 1.0018e-002
 471.466,114.638, 1.0037e-002
 472.227,114.877, 1.0055e-002
 472.985,115.115, 1.0072e-002
 473.745,115.353, 1.0091e-002
 474.51,115.592, 1.0109e-002
 475.271,115.83, 1.0128e-002
 476.03,116.068, 1.0146e-002
 476.789,116.307, 1.0165e-002
 477.556,116.545, 1.0184e-002
 478.31,116.783, 1.0203e-002
 479.071,117.022, 1.0221e-002
 479.824,117.26, 1.0238e-002
 480.581,117.498, 1.0257e-002
 481.334,117.737, 1.0275e-002
 482.082,117.975, 1.0293e-002
 482.837,118.213, 1.0312e-002
 483.59,118.452, 1.0329e-002
 484.346,118.69, 1.0348e-002
 485.094,118.928, 1.0367e-002
 485.84,119.167, 1.0385e-002
 486.585,119.405, 1.0404e-002
 487.338,119.643, 1.0422e-002
 488.08,119.882, 1.0440e-002
 488.816,120.12, 1.0459e-002
 489.555,120.358, 1.0478e-002
 490.283,120.597, 1.0495e-002
 491.022,120.835, 1.0515e-002
 491.748,121.073, 1.0532e-002
 492.483,121.312, 1.0551e-002
 493.219,121.55, 1.0569e-002
 493.956,121.788, 1.0587e-002
 494.692,122.027, 1.0604e-002
 495.441,122.265, 1.0621e-002
 496.186,122.503, 1.0638e-002
 496.953,122.742, 1.0657e-002
 497.716,122.98, 1.0674e-002
 498.491,123.218, 1.0692e-002
 499.269,123.457, 1.0710e-002
 500.046,123.695, 1.0729e-002
 500.835,123.933, 1.0747e-002
 501.617,124.172, 1.0766e-002
 502.404,124.41, 1.0784e-002
 503.183,124.648, 1.0803e-002
 503.958,124.887, 1.0821e-002
 504.737,125.125, 1.0840e-002
 505.519,125.363, 1.0859e-002
 506.289,125.602, 1.0876e-002
 507.05,125.84, 1.0895e-002
 507.815,126.078, 1.0917e-002
 508.575,126.317, 1.0934e-002
 509.343,126.555, 1.0951e-002
 510.102,126.793, 1.0969e-002
 510.858,127.032, 1.0987e-002
 511.613,127.27, 1.1008e-002
 512.364,127.508, 1.1024e-002
 513.105,127.747, 1.1040e-002
 513.846,127.985, 1.1059e-002
 514.598,128.223, 1.1076e-002
 515.342,128.462, 1.1094e-002
 516.082,128.7, 1.1113e-002
 516.828,128.938, 1.1130e-002
 517.568,129.177, 1.1147e-002
 518.31,129.415, 1.1166e-002
 519.049,129.653, 1.1184e-002
 519.772,129.892, 1.1201e-002
 520.51,130.13, 1.1220e-002
 521.249,130.368, 1.1236e-002
 521.995,130.607, 1.1255e-002
 522.728,130.845, 1.1273e-002
 523.468,131.083, 1.1291e-002
 524.188,131.322, 1.1308e-002
 524.916,131.56, 1.1326e-002
 525.647,131.798, 1.1344e-002
 526.378,132.037, 1.1362e-002
 527.109,132.275, 1.1379e-002
 527.838,132.513, 1.1397e-002
 528.557,132.752, 1.1415e-002
 529.28,132.99, 1.1431e-002
 530.006,133.228, 1.1450e-002
 530.735,133.467, 1.1467e-002
 531.446,133.705, 1.1484e-002
 532.173,133.943, 1.1502e-002
 532.89,134.182, 1.1519e-002
 533.612,134.42, 1.1536e-002
 534.316,134.658, 1.1553e-002
 535.037,134.897, 1.1571e-002
 535.754,135.135, 1.1589e-002
 536.471,135.373, 1.1605e-002
 537.184,135.612, 1.1623e-002
 537.904,135.85, 1.1641e-002
 538.612,136.088, 1.1658e-002
 539.33,136.327, 1.1674e-002
 540.043,136.565, 1.1692e-002
 540.748,136.803, 1.1714e-002
 541.465,137.042, 1.1729e-002
 542.173,137.28, 1.1745e-002
 542.887,137.518, 1.1762e-002
 543.591,137.757, 1.1779e-002
 544.309,137.995, 1.1797e-002
 545.023,138.233, 1.1813e-002
 545.737,138.472, 1.1831e-002
 546.458,138.71, 1.1848e-002
 547.17,138.948, 1.1865e-002
 547.88,139.187, 1.1882e-002
 548.596,139.425, 1.1901e-002
 549.3,139.663, 1.1918e-002
 550.012,139.902, 1.1935e-002
 550.716,140.14, 1.1954e-002
 551.43,140.378, 1.1972e-002
 552.125,140.617, 1.1990e-002
 552.831,140.855, 1.2005e-002
 553.539,141.093, 1.2022e-002
 554.239,141.332, 1.2039e-002
 554.941,141.57, 1.2055e-002
 555.652,141.808, 1.2072e-002
 556.355,142.047, 1.2089e-002
 557.06,142.285, 1.2107e-002
 557.762,142.523, 1.2123e-002
 558.472,142.762, 1.2140e-002
 559.168,143, 1.2156e-002
 559.875,143.238, 1.2174e-002
 560.572,143.477, 1.2191e-002
 561.279,143.715, 1.2208e-002
 561.985,143.953, 1.2224e-002
 562.689,144.192, 1.2243e-002
 563.396,144.43, 1.2259e-002
 564.105,144.668, 1.2278e-002
 564.808,144.907, 1.2293e-002
 565.518,145.145, 1.2310e-002
 566.209,145.383, 1.2327e-002
 566.916,145.622, 1.2350e-002
 567.627,145.86, 1.2365e-002
 568.315,146.098, 1.2380e-002
 569.017,146.337, 1.2396e-002
 569.712,146.575, 1.2413e-002
 570.413,146.813, 1.2429e-002
 571.112,147.052, 1.2446e-002
 571.808,147.29, 1.2464e-002
 572.499,147.528, 1.2480e-002
 573.2,147.767, 1.2498e-002
 573.895,148.005, 1.2513e-002
 574.597,148.243, 1.2529e-002
 575.287,148.482, 1.2546e-002
 575.986,148.72, 1.2563e-002
 576.681,148.958, 1.2580e-002
 577.373,149.197, 1.2597e-002
 578.072,149.435, 1.2615e-002
 578.768,149.673, 1.2631e-002
 579.455,149.912, 1.2647e-002
 580.144,150.15, 1.2663e-002
 580.837,150.388, 1.2680e-002
 581.534,150.627, 1.2697e-002
 582.226,150.865, 1.2714e-002
 582.919,151.103, 1.2730e-002
 583.606,151.342, 1.2747e-002
 584.301,151.58, 1.2764e-002
 585.001,151.818, 1.2781e-002
 585.698,152.057, 1.2798e-002
 586.391,152.295, 1.2814e-002
 587.068,152.533, 1.2831e-002
 587.766,152.772, 1.2848e-002
 588.453,153.01, 1.2866e-002
 589.137,153.248, 1.2881e-002
 589.843,153.487, 1.2899e-002
 590.534,153.725, 1.2917e-002
 591.222,153.963, 1.2933e-002
 591.911,154.202, 1.2951e-002
 592.601,154.44, 1.2966e-002
 593.286,154.678, 1.2983e-002
 593.971,154.917, 1.2998e-002
 594.655,155.155, 1.3016e-002
 595.356,155.393, 1.3033e-002
 596.045,155.632, 1.3050e-002
 596.727,155.87, 1.3067e-002
 597.409,156.108, 1.3086e-002
 598.098,156.347, 1.3101e-002
 598.787,156.585, 1.3118e-002
 599.466,156.823, 1.3136e-002
 600.135,157.062, 1.3152e-002
 600.801,157.3, 1.3172e-002
 601.473,157.538, 1.3187e-002
 602.139,157.777, 1.3203e-002
 602.806,158.015, 1.3221e-002
 603.474,158.253, 1.3237e-002
 604.138,158.492, 1.3253e-002
 604.799,158.73, 1.3270e-002
 605.478,158.968, 1.3286e-002
 606.156,159.207, 1.3301e-002
 606.841,159.445, 1.3318e-002
 607.522,159.683, 1.3333e-002
 608.219,159.922, 1.3351e-002
 608.919,160.16, 1.3367e-002
 609.618,160.398, 1.3383e-002
 610.323,160.637, 1.3401e-002
 611.03,160.875, 1.3417e-002
 611.742,161.113, 1.3434e-002
 612.449,161.352, 1.3452e-002
 613.153,161.59, 1.3468e-002
 613.861,161.828, 1.3485e-002
 614.571,162.067, 1.3503e-002
 615.266,162.305, 1.3520e-002
 615.973,162.543, 1.3536e-002
 616.668,162.782, 1.3555e-002
 617.37,163.02, 1.3572e-002
 618.058,163.258, 1.3587e-002
 618.752,163.497, 1.3605e-002
 619.435,163.735, 1.3621e-002
 620.128,163.973, 1.3638e-002
 620.82,164.212, 1.3655e-002
 621.509,164.45, 1.3670e-002
 622.198,164.688, 1.3688e-002
 622.876,164.927, 1.3705e-002
 623.563,165.165, 1.3723e-002
 624.248,165.403, 1.3738e-002
 624.928,165.642, 1.3755e-002
 625.609,165.88, 1.3772e-002
 626.292,166.118, 1.3790e-002
 626.978,166.357, 1.3806e-002
 627.654,166.595, 1.3822e-002
 628.335,166.833, 1.3839e-002
 629.018,167.072, 1.3856e-002
 629.684,167.31, 1.3873e-002
 630.371,167.548, 1.3890e-002
 631.042,167.787, 1.3906e-002
 631.721,168.025, 1.3923e-002
 632.395,168.263, 1.3940e-002
 633.063,168.502, 1.3957e-002
 633.727,168.74, 1.3972e-002
 634.403,168.978, 1.3989e-002
 635.07,169.217, 1.4005e-002
 635.733,169.455, 1.4022e-002
 636.406,169.693, 1.4039e-002
 637.068,169.932, 1.4055e-002
 637.734,170.17, 1.4072e-002
 638.408,170.408, 1.4088e-002
 639.076,170.647, 1.4105e-002
 639.741,170.885, 1.4120e-002
 640.407,171.123, 1.4137e-002
 641.063,171.362, 1.4153e-002
 641.738,171.6, 1.4171e-002
 642.4,171.838, 1.4186e-002
 643.068,172.077, 1.4203e-002
 643.72,172.315, 1.4220e-002
 644.382,172.553, 1.4236e-002
 645.039,172.792, 1.4252e-002
 645.702,173.03, 1.4267e-002
 646.365,173.268, 1.4284e-002
 647.024,173.507, 1.4301e-002
 647.684,173.745, 1.4317e-002
 648.348,173.983, 1.4333e-002
 649.008,174.222, 1.4350e-002
 649.669,174.46, 1.4367e-002
 650.336,174.698, 1.4383e-002
 650.996,174.937, 1.4399e-002
 651.655,175.175, 1.4415e-002
 652.323,175.413, 1.4432e-002
 652.983,175.652, 1.4448e-002
 653.628,175.89, 1.4464e-002
 654.295,176.128, 1.4481e-002
 654.95,176.367, 1.4496e-002
 655.601,176.605, 1.4513e-002
 656.268,176.843, 1.4530e-002
 656.912,177.082, 1.4545e-002
 657.582,177.32, 1.4562e-002
 658.228,177.558, 1.4579e-002
 658.88,177.797, 1.4594e-002
 659.53,178.035, 1.4611e-002
 660.186,178.273, 1.4627e-002
 660.842,178.512, 1.4642e-002
 661.504,178.75, 1.4659e-002
 662.153,178.988, 1.4675e-002
 662.805,179.227, 1.4692e-002
 663.454,179.465, 1.4707e-002
 664.115,179.703, 1.4725e-002
 664.774,179.942, 1.4740e-002
 665.425,180.18, 1.4756e-002
 666.081,180.418, 1.4772e-002
 666.734,180.657, 1.4790e-002
 667.387,180.895, 1.4805e-002
 668.042,181.133, 1.4822e-002
 668.701,181.372, 1.4839e-002
 669.346,181.61, 1.4854e-002
 670.004,181.848, 1.4871e-002
 670.655,182.087, 1.4887e-002
 671.299,182.325, 1.4903e-002
 671.956,182.563, 1.4920e-002
 672.601,182.802, 1.4936e-002
 673.239,183.04, 1.4953e-002
 673.89,183.278, 1.4968e-002
 674.54,183.517, 1.4985e-002
 675.194,183.755, 1.5001e-002
 675.84,183.993, 1.5017e-002
 676.487,184.232, 1.5033e-002
 677.137,184.47, 1.5049e-002
 677.783,184.708, 1.5064e-002
 678.437,184.947, 1.5080e-002
 679.091,185.185, 1.5097e-002
 679.736,185.423, 1.5113e-002
 680.386,185.662, 1.5130e-002
 681.034,185.9, 1.5146e-002
 681.667,186.138, 1.5160e-002
 682.323,186.377, 1.5178e-002
 682.969,186.615, 1.5193e-002
 683.609,186.853, 1.5210e-002
 684.247,187.092, 1.5226e-002
 684.883,187.33, 1.5243e-002
 685.517,187.568, 1.5261e-002
 686.138,187.807, 1.5276e-002
 686.765,188.045, 1.5292e-002
 687.388,188.283, 1.5309e-002
 688.008,188.522, 1.5325e-002
 688.623,188.76, 1.5341e-002
 689.241,188.998, 1.5356e-002
 689.86,189.237, 1.5371e-002
 690.475,189.475, 1.5389e-002
 691.092,189.713, 1.5404e-002
 691.708,189.952, 1.5420e-002
 692.336,190.19, 1.5434e-002
 692.965,190.428, 1.5451e-002
 693.604,190.667, 1.5466e-002
 694.246,190.905, 1.5481e-002
 694.898,191.143, 1.5496e-002
 695.541,191.382, 1.5513e-002
 696.184,191.62, 1.5528e-002
 696.829,191.858, 1.5544e-002
 697.485,192.097, 1.5561e-002
 698.132,192.335, 1.5576e-002
 698.778,192.573, 1.5593e-002
 699.431,192.812, 1.5609e-002
 700.075,193.05, 1.5625e-002
 700.726,193.288, 1.5640e-002
 701.375,193.527, 1.5657e-002
 702.018,193.765, 1.5672e-002
 702.661,194.003, 1.5689e-002
 703.307,194.242, 1.5705e-002
 703.949,194.48, 1.5720e-002
 704.599,194.718, 1.5737e-002
 705.242,194.957, 1.5754e-002
 705.883,195.195, 1.5770e-002
 706.524,195.433, 1.5785e-002
 707.157,195.672, 1.5802e-002
 707.796,195.91, 1.5818e-002
 708.432,196.148, 1.5834e-002
 709.06,196.387, 1.5849e-002
 709.693,196.625, 1.5865e-002
 710.327,196.863, 1.5881e-002
 710.961,197.102, 1.5896e-002
 711.596,197.34, 1.5911e-002
 712.233,197.578, 1.5929e-002
 712.859,197.817, 1.5943e-002
 713.492,198.055, 1.5960e-002
 714.126,198.293, 1.5976e-002
 714.747,198.532, 1.5992e-002
 715.381,198.77, 1.6007e-002
 716.012,199.008, 1.6023e-002
 716.635,199.247, 1.6038e-002
 717.267,199.485, 1.6054e-002
 717.9,199.723, 1.6069e-002
 718.52,199.962, 1.6085e-002
 719.139,200.2, 1.6100e-002
 719.776,200.438, 1.6115e-002
 720.404,200.677, 1.6132e-002
 721.024,200.915, 1.6146e-002
 721.656,201.153, 1.6162e-002
 722.274,201.392, 1.6177e-002
 722.895,201.63, 1.6194e-002
 723.524,201.868, 1.6210e-002
 724.147,202.107, 1.6224e-002
 724.773,202.345, 1.6240e-002
 725.4,202.583, 1.6255e-002
 726.023,202.822, 1.6272e-002
 726.647,203.06, 1.6288e-002
 727.277,203.298, 1.6304e-002
 727.901,203.537, 1.6320e-002
 728.519,203.775, 1.6335e-002
 729.141,204.013, 1.6351e-002
 729.768,204.252, 1.6366e-002
 730.388,204.49, 1.6381e-002
 731.015,204.728, 1.6398e-002
 731.65,204.967, 1.6414e-002
 732.266,205.205, 1.6429e-002
 732.887,205.443, 1.6445e-002
 733.505,205.682, 1.6462e-002
 734.128,205.92, 1.6477e-002
 734.747,206.158, 1.6492e-002
 735.369,206.397, 1.6509e-002
 735.988,206.635, 1.6524e-002
 736.608,206.873, 1.6539e-002
 737.228,207.112, 1.6555e-002
 737.857,207.35, 1.6572e-002
 738.472,207.588, 1.6587e-002
 739.094,207.827, 1.6603e-002
 739.715,208.065, 1.6619e-002
 740.337,208.303, 1.6635e-002
 740.955,208.542, 1.6650e-002
 741.57,208.78, 1.6666e-002
 742.198,209.018, 1.6681e-002
 742.82,209.257, 1.6698e-002
 743.442,209.495, 1.6713e-002
 744.07,209.733, 1.6730e-002
 744.688,209.972, 1.6745e-002
 745.311,210.21, 1.6762e-002
 745.926,210.448, 1.6777e-002
 746.551,210.687, 1.6793e-002
 747.168,210.925, 1.6810e-002
 747.79,211.163, 1.6824e-002
 748.404,211.402, 1.6839e-002
 749.033,211.64, 1.6856e-002
 749.664,211.878, 1.6872e-002
 750.284,212.117, 1.6888e-002
 750.91,212.355, 1.6904e-002
 751.531,212.593, 1.6919e-002
 752.156,212.832, 1.6937e-002
 752.783,213.07, 1.6951e-002
 753.402,213.308, 1.6968e-002
 754.021,213.547, 1.6983e-002
 754.645,213.785, 1.7000e-002
 755.268,214.023, 1.7015e-002
 755.881,214.262, 1.7030e-002
 756.497,214.5, 1.7047e-002
 757.116,214.738, 1.7063e-002
 757.724,214.977, 1.7078e-002
 758.334,215.215, 1.7096e-002
 758.939,215.453, 1.7111e-002
 759.538,215.692, 1.7127e-002
 760.134,215.93, 1.7144e-002
 760.73,216.168, 1.7157e-002
 761.318,216.407, 1.7173e-002
 761.912,216.645, 1.7190e-002
 762.513,216.883, 1.7206e-002
 763.11,217.122, 1.7221e-002
 763.713,217.36, 1.7237e-002
 764.318,217.598, 1.7251e-002
 764.934,217.837, 1.7267e-002
 765.556,218.075, 1.7281e-002
 766.185,218.313, 1.7296e-002
 766.827,218.552, 1.7313e-002
 767.465,218.79, 1.7330e-002
 768.106,219.028, 1.7344e-002
 768.741,219.267, 1.7361e-002
 769.376,219.505, 1.7377e-002
 770.01,219.743, 1.7393e-002
 770.648,219.982, 1.7410e-002
 771.277,220.22, 1.7425e-002
 771.913,220.458, 1.7442e-002
 772.542,220.697, 1.7457e-002
 773.171,220.935, 1.7474e-002
 773.797,221.173, 1.7489e-002
 774.427,221.412, 1.7505e-002
 775.05,221.65, 1.7521e-002
 775.684,221.888, 1.7537e-002
 776.313,222.127, 1.7554e-002
 776.943,222.365, 1.7569e-002
 777.575,222.603, 1.7587e-002
 778.193,222.842, 1.7602e-002
 778.83,223.08, 1.7618e-002
 779.454,223.318, 1.7634e-002
 780.066,223.557, 1.7649e-002
 780.68,223.795, 1.7667e-002
 781.292,224.033, 1.7681e-002
 781.906,224.272, 1.7697e-002
 782.523,224.51, 1.7712e-002
 783.142,224.748, 1.7729e-002
 783.757,224.987, 1.7745e-002
 784.376,225.225, 1.7759e-002
 784.986,225.463, 1.7776e-002
 785.592,225.702, 1.7791e-002
 786.191,225.94, 1.7808e-002
 786.784,226.178, 1.7823e-002
 787.367,226.417, 1.7838e-002
 787.951,226.655, 1.7855e-002
 788.534,226.893, 1.7869e-002
 789.114,227.132, 1.7884e-002
 789.69,227.37, 1.7900e-002
 790.268,227.608, 1.7913e-002
 790.846,227.847, 1.7930e-002
 791.429,228.085, 1.7946e-002
 792.009,228.323, 1.7959e-002
 792.587,228.562, 1.7976e-002
 793.158,228.8, 1.7990e-002
 793.726,229.038, 1.8003e-002
 794.293,229.277, 1.8020e-002
 794.854,229.515, 1.8034e-002
 795.404,229.753, 1.8048e-002
 795.951,229.992, 1.8063e-002
 796.492,230.23, 1.8078e-002
 797.038,230.468, 1.8092e-002
 797.596,230.707, 1.8107e-002
 798.161,230.945, 1.8121e-002
 798.737,231.183, 1.8135e-002
 799.33,231.422, 1.8149e-002
 799.93,231.66, 1.8164e-002
 800.529,231.898, 1.8181e-002
 801.127,232.137, 1.8196e-002
 801.709,232.375, 1.8212e-002
 802.286,232.613, 1.8227e-002
 802.854,232.852, 1.8242e-002
 803.418,233.09, 1.8257e-002
 803.979,233.328, 1.8272e-002
 804.542,233.567, 1.8286e-002
 805.099,233.805, 1.8302e-002
 805.664,234.043, 1.8317e-002
 806.227,234.282, 1.8332e-002
 806.795,234.52, 1.8346e-002
 807.363,234.758, 1.8360e-002
 807.926,234.997, 1.8375e-002
 808.482,235.235, 1.8390e-002
 809.039,235.473, 1.8405e-002
 809.596,235.712, 1.8419e-002
 810.158,235.95, 1.8434e-002
 810.716,236.188, 1.8449e-002
 811.29,236.427, 1.8463e-002
 811.863,236.665, 1.8477e-002
 812.439,236.903, 1.8491e-002
 813.018,237.142, 1.8507e-002
 813.605,237.38, 1.8522e-002
 814.181,237.618, 1.8537e-002
 814.751,237.857, 1.8551e-002
 815.331,238.095, 1.8567e-002
 815.912,238.333, 1.8582e-002
 816.49,238.572, 1.8598e-002
 817.082,238.81, 1.8612e-002
 817.673,239.048, 1.8628e-002
 818.264,239.287, 1.8643e-002
 818.856,239.525, 1.8659e-002
 819.444,239.763, 1.8675e-002
 820.029,240.002, 1.8692e-002
 820.605,240.24, 1.8708e-002
 821.186,240.478, 1.8723e-002
 821.752,240.717, 1.8739e-002
 822.328,240.955, 1.8755e-002
 822.896,241.193, 1.8771e-002
 823.471,241.432, 1.8785e-002
 824.046,241.67, 1.8800e-002
 824.619,241.908, 1.8815e-002
 825.207,242.147, 1.8829e-002
 825.801,242.385, 1.8845e-002
 826.394,242.623, 1.8860e-002
 827.002,242.862, 1.8875e-002
 827.601,243.1, 1.8890e-002
 828.216,243.338, 1.8905e-002
 828.821,243.577, 1.8921e-002
 829.447,243.815, 1.8937e-002
 830.065,244.053, 1.8952e-002
 830.681,244.292, 1.8969e-002
 831.302,244.53, 1.8984e-002
 831.928,244.768, 1.9000e-002
 832.545,245.007, 1.9016e-002
 833.167,245.245, 1.9032e-002
 833.789,245.483, 1.9048e-002
 834.402,245.722, 1.9063e-002
 835.022,245.96, 1.9079e-002
 835.647,246.198, 1.9094e-002
 836.27,246.437, 1.9110e-002
 836.89,246.675, 1.9125e-002
 837.508,246.913, 1.9142e-002
 838.122,247.152, 1.9157e-002
 838.739,247.39, 1.9173e-002
 839.348,247.628, 1.9190e-002
 839.958,247.867, 1.9207e-002
 840.58,248.105, 1.9220e-002
 841.209,248.343, 1.9239e-002
 841.822,248.582, 1.9252e-002
 842.442,248.82, 1.9269e-002
 843.062,249.058, 1.9285e-002
 843.678,249.297, 1.9301e-002
 844.314,249.535, 1.9319e-002
 844.932,249.773, 1.9334e-002
 845.553,250.012, 1.9350e-002
 846.181,250.25, 1.9366e-002
 846.796,250.488, 1.9381e-002
 847.406,250.727, 1.9397e-002
 848.026,250.965, 1.9415e-002
 848.638,251.203, 1.9430e-002
 849.255,251.442, 1.9446e-002
 849.868,251.68, 1.9461e-002
 850.486,251.918, 1.9477e-002
 851.107,252.157, 1.9492e-002
 851.724,252.395, 1.9509e-002
 852.337,252.633, 1.9525e-002
 852.949,252.872, 1.9535e-002
 853.556,253.11, 1.9551e-002
 854.17,253.348, 1.9568e-002
 854.792,253.587, 1.9584e-002
 855.437,253.825, 1.9599e-002
 856.096,254.063, 1.9615e-002
 856.746,254.302, 1.9631e-002
 857.391,254.54, 1.9651e-002
 858.009,254.778, 1.9665e-002
 858.624,255.017, 1.9683e-002
 859.225,255.255, 1.9700e-002
 859.814,255.493, 1.9717e-002
 860.398,255.732, 1.9730e-002
 860.975,255.97, 1.9746e-002
 861.551,256.208, 1.9763e-002
 862.135,256.447, 1.9778e-002
 862.721,256.685, 1.9792e-002
 863.319,256.923, 1.9808e-002
 863.921,257.162, 1.9823e-002
 864.51,257.4, 1.9838e-002
 865.112,257.638, 1.9854e-002
 865.719,257.877, 1.9870e-002
 866.319,258.115, 1.9886e-002
 866.929,258.353, 1.9902e-002
 867.534,258.592, 1.9918e-002
 868.133,258.83, 1.9933e-002
 868.721,259.068, 1.9948e-002
 869.315,259.307, 1.9964e-002
 869.91,259.545, 1.9980e-002
 870.508,259.783, 1.9996e-002
 871.101,260.022, 2.0011e-002
 871.704,260.26, 2.0027e-002
 872.286,260.498, 2.0043e-002
 872.864,260.737, 2.0058e-002
 873.421,260.975, 2.0075e-002
 873.976,261.213, 2.0091e-002
 874.511,261.452, 2.0106e-002
 875.038,261.69, 2.0119e-002
 875.553,261.928, 2.0134e-002
 876.046,262.167, 2.0149e-002
 876.553,262.405, 2.0163e-002
 877.062,262.643, 2.0175e-002
 877.601,262.882, 2.0189e-002
 878.168,263.12, 2.0204e-002
 878.757,263.358, 2.0219e-002
 879.372,263.597, 2.0233e-002
 879.997,263.835, 2.0249e-002
 880.628,264.073, 2.0267e-002
 881.257,264.312, 2.0284e-002
 881.881,264.55, 2.0300e-002
 882.501,264.788, 2.0318e-002
 883.119,265.027, 2.0333e-002
 883.733,265.265, 2.0351e-002
 884.336,265.503, 2.0367e-002
 884.948,265.742, 2.0383e-002
 885.552,265.98, 2.0399e-002
 886.156,266.218, 2.0415e-002
 886.762,266.457, 2.0431e-002
 887.368,266.695, 2.0446e-002
 887.982,266.933, 2.0461e-002
 888.595,267.172, 2.0479e-002
 889.218,267.41, 2.0495e-002
 889.827,267.648, 2.0512e-002
 890.436,267.887, 2.0529e-002
 891.045,268.125, 2.0544e-002
 891.654,268.363, 2.0559e-002
 892.253,268.602, 2.0574e-002
 892.864,268.84, 2.0591e-002
 893.47,269.078, 2.0607e-002
 894.076,269.317, 2.0624e-002
 894.676,269.555, 2.0640e-002
 895.273,269.793, 2.0656e-002
 895.88,270.032, 2.0673e-002
 896.476,270.27, 2.0689e-002
 897.071,270.508, 2.0705e-002
 897.659,270.747, 2.0721e-002
 898.249,270.985, 2.0736e-002
 898.843,271.223, 2.0752e-002
 899.429,271.462, 2.0768e-002
 900.021,271.7, 2.0784e-002
 900.616,271.938, 2.0799e-002
 901.207,272.177, 2.0816e-002
 901.803,272.415, 2.0832e-002
 902.38,272.653, 2.0845e-002
 902.96,272.892, 2.0862e-002
 903.527,273.13, 2.0878e-002
 904.098,273.368, 2.0894e-002
 904.666,273.607, 2.0910e-002
 905.223,273.845, 2.0923e-002
 905.783,274.083, 2.0939e-002
 906.346,274.322, 2.0955e-002
 906.905,274.56, 2.0971e-002
 907.472,274.798, 2.0984e-002
 908.031,275.037, 2.1000e-002
 908.578,275.275, 2.1016e-002
 909.122,275.513, 2.1031e-002
 909.656,275.752, 2.1046e-002
 910.18,275.99, 2.1062e-002
 910.702,276.228, 2.1074e-002
 911.232,276.467, 2.1089e-002
 911.78,276.705, 2.1104e-002
 912.309,276.943, 2.1119e-002
 912.821,277.182, 2.1134e-002
 913.289,277.42, 2.1150e-002
 913.719,277.658, 2.1162e-002
 914.134,277.897, 2.1175e-002
 914.526,278.135, 2.1189e-002
 914.923,278.373, 2.1201e-002
 915.35,278.612, 2.1211e-002
 915.843,278.85, 2.1223e-002
 916.397,279.088, 2.1233e-002
 916.979,279.327, 2.1249e-002
 917.569,279.565, 2.1264e-002
 918.156,279.803, 2.1280e-002
 918.731,280.042, 2.1296e-002
 919.304,280.28, 2.1312e-002
 919.882,280.518, 2.1328e-002
 920.473,280.757, 2.1343e-002
 921.091,280.995, 2.1357e-002
 921.731,281.233, 2.1376e-002
 922.378,281.472, 2.1391e-002
 923.021,281.71, 2.1410e-002
 923.669,281.948, 2.1428e-002
 924.303,282.187, 2.1446e-002
 924.953,282.425, 2.1464e-002
 925.607,282.663, 2.1479e-002
 926.249,282.902, 2.1497e-002
 926.873,283.14, 2.1515e-002
 927.466,283.378, 2.1533e-002
 927.998,283.617, 2.1550e-002
 928.544,283.855, 2.1567e-002
 929.072,284.093, 2.1582e-002
 929.606,284.332, 2.1598e-002
 930.153,284.57, 2.1611e-002
 930.709,284.808, 2.1626e-002
 931.272,285.047, 2.1642e-002
 931.852,285.285, 2.1659e-002
 932.443,285.523, 2.1677e-002
 933.04,285.762, 2.1692e-002
 933.668,286, 2.1706e-002
 934.301,286.238, 2.1723e-002
 934.944,286.477, 2.1743e-002
 935.576,286.715, 2.1757e-002
 936.214,286.953, 2.1775e-002
 936.85,287.192, 2.1792e-002
 937.486,287.43, 2.1810e-002
 938.121,287.668, 2.1827e-002
 938.757,287.907, 2.1845e-002
 939.386,288.145, 2.1861e-002
 940.019,288.383, 2.1880e-002
 940.649,288.622, 2.1897e-002
 941.277,288.86, 2.1914e-002
 941.905,289.098, 2.1932e-002
 942.532,289.337, 2.1949e-002
 943.165,289.575, 2.1967e-002
 943.796,289.813, 2.1984e-002
 944.424,290.052, 2.2001e-002
 945.074,290.29, 2.2020e-002
 945.702,290.528, 2.2037e-002
 946.343,290.767, 2.2054e-002
 946.988,291.005, 2.2072e-002
 947.623,291.243, 2.2090e-002
 948.256,291.482, 2.2108e-002
 948.873,291.72, 2.2127e-002
 949.494,291.958, 2.2144e-002
 950.107,292.197, 2.2161e-002
 950.731,292.435, 2.2178e-002
 951.359,292.673, 2.2195e-002
 952.013,292.912, 2.2214e-002
 952.662,293.15, 2.2231e-002
 953.318,293.388, 2.2249e-002
 953.959,293.627, 2.2267e-002
 954.619,293.865, 2.2286e-002
 955.261,294.103, 2.2305e-002
 955.886,294.342, 2.2323e-002
 956.514,294.58, 2.2341e-002
 957.142,294.818, 2.2360e-002
 957.766,295.057, 2.2378e-002
 958.392,295.295, 2.2396e-002
 959.024,295.533, 2.2414e-002
 959.656,295.772, 2.2431e-002
 960.28,296.01, 2.2449e-002
 960.913,296.248, 2.2467e-002
 961.534,296.487, 2.2485e-002
 962.171,296.725, 2.2503e-002
 962.799,296.963, 2.2521e-002
 963.42,297.202, 2.2540e-002
 964.034,297.44, 2.2557e-002
 964.657,297.678, 2.2578e-002
 965.29,297.917, 2.2596e-002
 965.91,298.155, 2.2614e-002
 966.519,298.393, 2.2632e-002
 967.152,298.632, 2.2651e-002
 967.771,298.87, 2.2672e-002
 968.4,299.108, 2.2690e-002
 969.031,299.347, 2.2709e-002
 969.676,299.585, 2.2728e-002
 970.287,299.823, 2.2746e-002
 970.897,300.062, 2.2766e-002
 971.511,300.3, 2.2786e-002
 972.138,300.538, 2.2804e-002
 972.793,300.777, 2.2820e-002
 973.46,301.015, 2.2842e-002
 974.14,301.253, 2.2862e-002
 974.791,301.492, 2.2884e-002
 975.393,301.73, 2.2907e-002
 975.997,301.968, 2.2925e-002
 976.603,302.207, 2.2944e-002
 977.201,302.445, 2.2965e-002
 977.806,302.683, 2.2984e-002
 978.444,302.922, 2.3002e-002
 979.102,303.16, 2.3022e-002
 979.766,303.398, 2.3043e-002
 980.419,303.637, 2.3065e-002
 981.044,303.875, 2.3088e-002
 981.653,304.113, 2.3108e-002
 982.259,304.352, 2.3130e-002
 982.893,304.59, 2.3149e-002
 983.529,304.828, 2.3172e-002
 984.18,305.067, 2.3191e-002
 984.842,305.305, 2.3214e-002
 985.498,305.543, 2.3234e-002
 986.133,305.782, 2.3258e-002
 986.759,306.02, 2.3279e-002
 987.383,306.258, 2.3301e-002
 988.014,306.497, 2.3323e-002
 988.639,306.735, 2.3344e-002
 989.273,306.973, 2.3366e-002
 989.911,307.212, 2.3388e-002
 990.591,307.45, 2.3410e-002
 991.262,307.688, 2.3431e-002
 991.935,307.927, 2.3456e-002
 992.593,308.165, 2.3481e-002
 993.248,308.403, 2.3503e-002
 993.905,308.642, 2.3527e-002
 994.55,308.88, 2.3551e-002
 995.199,309.118, 2.3575e-002
 995.849,309.357, 2.3600e-002
 996.491,309.595, 2.3624e-002
 997.128,309.833, 2.3648e-002
 997.765,310.072, 2.3672e-002
 998.394,310.31, 2.3693e-002
 999.02,310.548, 2.3721e-002
 999.609,310.787, 2.3744e-002
1000.2,311.025, 2.3767e-002
1000.82,311.263, 2.3789e-002
1001.44,311.502, 2.3815e-002
1002.06,311.74, 2.3838e-002
1002.7,311.978, 2.3863e-002
1003.35,312.217, 2.3886e-002
1004.03,312.455, 2.3911e-002
1004.7,312.693, 2.3938e-002
1005.37,312.932, 2.3964e-002
1005.98,313.17, 2.3992e-002
1006.57,313.408, 2.4018e-002
1007.16,313.647, 2.4043e-002
1007.75,313.885, 2.4068e-002
1008.36,314.123, 2.4093e-002
1009.01,314.362, 2.4118e-002
1009.68,314.6, 2.4141e-002
1010.38,314.838, 2.4168e-002
1011.09,315.077, 2.4197e-002
1011.8,315.315, 2.4224e-002
1012.51,315.553, 2.4250e-002
1013.23,315.792, 2.4280e-002
1013.95,316.03, 2.4311e-002
1014.67,316.268, 2.4339e-002
1015.39,316.507, 2.4368e-002
1016.11,316.745, 2.4395e-002
1016.82,316.983, 2.4425e-002
1017.53,317.222, 2.4457e-002
1018.22,317.46, 2.4486e-002
1018.91,317.698, 2.4516e-002
1019.58,317.937, 2.4546e-002
1020.25,318.175, 2.4575e-002
1020.91,318.413, 2.4603e-002
1021.58,318.652, 2.4632e-002
1022.26,318.89, 2.4662e-002
1022.92,319.128, 2.4692e-002
1023.57,319.367, 2.4720e-002
1024.21,319.605, 2.4751e-002
1024.85,319.843, 2.4781e-002
1025.47,320.082, 2.4810e-002
1026.07,320.32, 2.4839e-002
1026.63,320.558, 2.4865e-002
1027.19,320.797, 2.4893e-002
1027.74,321.035, 2.4920e-002
1028.29,321.273, 2.4944e-002
1028.86,321.512, 2.4972e-002
1029.42,321.75, 2.4997e-002
1030.01,321.988, 2.5025e-002
1030.6,322.227, 2.5053e-002
1031.21,322.465, 2.5082e-002
1031.82,322.703, 2.5108e-002
1032.44,322.942, 2.5136e-002
1033.05,323.18, 2.5164e-002
1033.67,323.418, 2.5192e-002
1034.29,323.657, 2.5219e-002
1034.91,323.895, 2.5245e-002
1035.56,324.133, 2.5273e-002
1036.2,324.372, 2.5301e-002
1036.86,324.61, 2.5330e-002
1037.51,324.848, 2.5358e-002
1038.17,325.087, 2.5386e-002
1038.84,325.325, 2.5414e-002
1039.51,325.563, 2.5444e-002
1040.18,325.802, 2.5473e-002
1040.86,326.04, 2.5501e-002
1041.52,326.278, 2.5527e-002
1042.19,326.517, 2.5556e-002
1042.56,326.647, 2.5571e-002