File: data/16.6mm-102819/byto000sA1r2-16mm-102619.csv
#EXPORTTYPE:           ,DATA ALL                                                                                                    ,,,,,,
#FILE:                 ,bytownA1run2.ngb-sle                                                                                        ,,,,,,
#FORMAT:               ,NETZSCH5                                                                                                    ,,,,,,
#FTYPE:                ,ANSI                                                                                                        ,,,,,,
#IDENTITY:             ,fmb-A                                                                                                       ,,,,,,
#DECIMAL:              ,POINT                                                                                                       ,,,,,,
#SEPARATOR:            ,COMMA                                                                                                       ,,,,,,
#MTYPE:                ,DIL                                                                                                         ,,,,,,
#INSTRUMENT:           ,NETZSCH DIL 402C                                                                                            ,,,,,,
#PROJECT:              ,feldspar                                                                                                    ,,,,,,
#DATE/TIME:            ,10/26/2019 10:13:27 AM (UTC-5)                                                                              ,,,,,,
#CORR. FILE:           ,                                                                                                            ,,,,,,
#TEMPCAL:              ,TCALZERO.TMX                                                                                                ,,,,,,
#LABORATORY:           ,Mineral Physics                                                                                             ,,,,,,
#OPERATOR:             ,PAG                                                                                                         ,,,,,,
#REMARK:               ,bare, norm start, for bytown and rocks , long stnd, new thermocouple, new pushrod, redo wa heated to 850 c
#SAMPLE:               ,mexi bytownite                                                                                              ,,,,,,
#SAMPLE LENGTH /mm:    ,16.048,,,,,,
#MATERIAL:             ,sapphire stnd                                                                                               ,,,,,,
#MEASMODE:             ,Standard Expansion                                                                                          ,,,,,,
#PURGE GAS 1:          ,ARGON                                                                                                       ,,,,,,
#FLOW RATE 1 /(ml/min):,75,,,,,,
#M.RANGE /µm:          ,500,,,,,,
#CORR. CODE:           ,10,,,,,,
#RANGE:                ,20.0°C/3.0(K/min)/1180.0°C                                                                                  ,,,,,,
#SEGMENT:              ,S1/1                                                                                                        ,,,,,,
#SEG. 1:               ,20.0°C/3.0(K/min)/1180.0°C                                                                                  ,,,,,,
,,,,,,,
##Temp./°C,Time/min,dL/Lo,,,,,
21.19,0.000000000000,1.2758e-05,,,,,
21.225,0.26,1.4652e-05,,,,,
21.257,0.52,1.6057e-05,,,,,
21.274,0.78,1.6754e-05,,,,,
21.28,1.04,1.7226e-05,,,,,
21.296,1.3,1.7184e-05,,,,,
21.312,1.56,1.7166e-05,,,,,
21.306,1.82,1.7037e-05,,,,,
21.319,2.08,1.6795e-05,,,,,
21.317,2.34,1.6516e-05,,,,,
21.322,2.6,1.6022e-05,,,,,
21.324,2.86,1.585e-05,,,,,
21.357,3.12,1.5345e-05,,,,,
21.406,3.38,1.4714e-05,,,,,
21.513,3.64,1.3648e-05,,,,,
21.695,3.9,1.1856e-05,,,,,
21.968,4.16,0.000009491100,,,,,
22.365,4.42,0.000006431700,,,,,
22.878,4.68,0.000003625800,,,,,
23.521,4.94,0.000000481090,,,,,
24.284,5.2,-0.000002730200,,,,,
25.149,5.46,-0.000005621400,,,,,
26.115,5.72,-0.000007785800,,,,,
27.174,5.98,-0.000008703100,,,,,
28.271,6.24,-0.000008860100,,,,,
29.437,6.5,-0.000007847000,,,,,
30.659,6.76,-0.000005632000,,,,,
31.885,7.02,-0.000002556900,,,,,
33.12,7.28,0.000002161600,,,,,
34.377,7.54,0.000008375400,,,,,
35.621,7.8,1.535e-05,,,,,
36.875,8.06,2.3226e-05,,,,,
38.135,8.32,3.1906e-05,,,,,
39.37,8.58,4.1251e-05,,,,,
40.634,8.84,5.1035e-05,,,,,
41.896,9.1,6.1532e-05,,,,,
43.162,9.36,7.2287e-05,,,,,
44.442,9.62,8.327e-05,,,,,
45.716,9.88,9.4548e-05,,,,,
47.01,10.14,0.00010731,,,,,
48.32,10.4,0.00011957,,,,,
49.633,10.66,0.00013206,,,,,
50.96,10.92,0.00014471,,,,,
52.297,11.18,0.00015754,,,,,
53.634,11.44,0.00017083,,,,,
54.996,11.7,0.00018471,,,,,
56.369,11.96,0.00019869,,,,,
57.738,12.22,0.0002129,,,,,
59.105,12.48,0.00022766,,,,,
60.47,12.74,0.00024277,,,,,
61.846,13,0.00025792,,,,,
63.227,13.26,0.0002734,,,,,
64.597,13.52,0.00028902,,,,,
65.958,13.78,0.00030501,,,,,
67.32,14.04,0.00032147,,,,,
68.687,14.3,0.00033783,,,,,
70.064,14.56,0.00035465,,,,,
71.406,14.82,0.00037076,,,,,
72.76,15.08,0.00038779,,,,,
74.114,15.34,0.0004045,,,,,
75.471,15.6,0.0004217,,,,,
76.839,15.86,0.00043897,,,,,
78.195,16.12,0.00045614,,,,,
79.558,16.38,0.00047352,,,,,
80.905,16.64,0.00049107,,,,,
82.243,16.9,0.00050844,,,,,
83.583,17.16,0.00052594,,,,,
84.904,17.42,0.0005434,,,,,
86.251,17.68,0.00056091,,,,,
87.578,17.94,0.0005788,,,,,
88.898,18.2,0.00059656,,,,,
90.219,18.46,0.0006144,,,,,
91.541,18.72,0.00063172,,,,,
92.86,18.98,0.00064988,,,,,
94.162,19.24,0.00066771,,,,,
95.473,19.5,0.0006856,,,,,
96.785,19.76,0.00070355,,,,,
98.078,20.02,0.00072123,,,,,
99.378,20.28,0.00073896,,,,,
100.671,20.54,0.00075698,,,,,
101.953,20.8,0.0007751,,,,,
103.231,21.06,0.0007927,,,,,
104.525,21.32,0.00081111,,,,,
105.807,21.58,0.00082907,,,,,
107.087,21.84,0.00084699,,,,,
108.374,22.1,0.00086512,,,,,
109.649,22.36,0.00088334,,,,,
110.914,22.62,0.00090106,,,,,
112.177,22.88,0.00091929,,,,,
113.445,23.14,0.00093718,,,,,
114.704,23.4,0.0009553,,,,,
115.967,23.66,0.00097333,,,,,
117.222,23.92,0.00099138,,,,,
118.478,24.18,0.0010095,,,,,
119.723,24.44,0.001027,,,,,
120.978,24.7,0.0010453,,,,,
122.225,24.96,0.0010632,,,,,
123.461,25.22,0.0010808,,,,,
124.699,25.48,0.0010988,,,,,
125.941,25.74,0.0011165,,,,,
127.178,26,0.0011345,,,,,
128.416,26.26,0.0011523,,,,,
129.653,26.52,0.0011704,,,,,
130.895,26.78,0.0011882,,,,,
132.12,27.04,0.001206,,,,,
133.353,27.3,0.0012239,,,,,
134.572,27.56,0.0012419,,,,,
135.801,27.82,0.0012595,,,,,
137.029,28.08,0.0012776,,,,,
138.259,28.34,0.0012952,,,,,
139.47,28.6,0.0013131,,,,,
140.694,28.86,0.0013308,,,,,
141.914,29.12,0.0013485,,,,,
143.132,29.38,0.0013661,,,,,
144.343,29.64,0.001384,,,,,
145.554,29.9,0.0014016,,,,,
146.757,30.16,0.0014188,,,,,
147.962,30.42,0.0014366,,,,,
149.167,30.68,0.0014541,,,,,
150.372,30.94,0.0014715,,,,,
151.584,31.2,0.0014891,,,,,
152.777,31.46,0.0015068,,,,,
153.974,31.72,0.0015239,,,,,
155.165,31.98,0.0015417,,,,,
156.365,32.24,0.0015589,,,,,
157.559,32.5,0.0015767,,,,,
158.75,32.76,0.001594,,,,,
159.933,33.02,0.0016114,,,,,
161.119,33.28,0.0016288,,,,,
162.314,33.54,0.0016466,,,,,
163.498,33.8,0.0016643,,,,,
164.69,34.06,0.0016814,,,,,
165.862,34.32,0.0016986,,,,,
167.032,34.58,0.0017159,,,,,
168.225,34.84,0.0017335,,,,,
169.394,35.1,0.0017507,,,,,
170.562,35.36,0.0017679,,,,,
171.729,35.62,0.0017851,,,,,
172.889,35.88,0.0018022,,,,,
174.066,36.14,0.0018197,,,,,
175.223,36.4,0.0018371,,,,,
176.39,36.66,0.0018543,,,,,
177.56,36.92,0.0018717,,,,,
178.719,37.18,0.0018889,,,,,
179.883,37.44,0.0019064,,,,,
181.038,37.7,0.0019236,,,,,
182.202,37.96,0.0019407,,,,,
183.359,38.22,0.0019582,,,,,
184.515,38.48,0.0019751,,,,,
185.665,38.74,0.0019923,,,,,
186.812,39,0.0020095,,,,,
187.959,39.26,0.0020263,,,,,
189.103,39.52,0.0020435,,,,,
190.246,39.78,0.0020605,,,,,
191.401,40.04,0.0020776,,,,,
192.549,40.3,0.0020946,,,,,
193.685,40.56,0.0021117,,,,,
194.823,40.82,0.0021287,,,,,
195.965,41.08,0.0021459,,,,,
197.096,41.34,0.0021628,,,,,
198.223,41.6,0.0021797,,,,,
199.368,41.86,0.0021966,,,,,
200.495,42.12,0.0022135,,,,,
201.621,42.38,0.0022303,,,,,
202.731,42.64,0.002247,,,,,
203.868,42.9,0.002264,,,,,
204.987,43.16,0.0022803,,,,,
206.11,43.42,0.0022972,,,,,
207.236,43.68,0.0023139,,,,,
208.345,43.94,0.0023305,,,,,
209.471,44.2,0.0023474,,,,,
210.59,44.46,0.002364,,,,,
211.705,44.72,0.0023806,,,,,
212.826,44.98,0.0023969,,,,,
213.934,45.24,0.0024139,,,,,
215.049,45.5,0.0024304,,,,,
216.15,45.76,0.0024467,,,,,
217.254,46.02,0.0024631,,,,,
218.353,46.28,0.0024796,,,,,
219.462,46.54,0.0024965,,,,,
220.574,46.8,0.002513,,,,,
221.671,47.06,0.0025293,,,,,
222.766,47.32,0.0025457,,,,,
223.864,47.58,0.0025621,,,,,
224.974,47.84,0.0025784,,,,,
226.071,48.1,0.0025952,,,,,
227.165,48.36,0.0026114,,,,,
228.259,48.62,0.0026276,,,,,
229.357,48.88,0.0026438,,,,,
230.436,49.14,0.00266,,,,,
231.518,49.4,0.0026766,,,,,
232.603,49.66,0.0026929,,,,,
233.692,49.92,0.002709,,,,,
234.788,50.18,0.0027255,,,,,
235.877,50.44,0.0027419,,,,,
236.959,50.7,0.0027581,,,,,
238.031,50.96,0.0027743,,,,,
239.109,51.22,0.0027906,,,,,
240.188,51.48,0.0028066,,,,,
241.262,51.74,0.0028225,,,,,
242.334,52,0.0028384,,,,,
243.397,52.26,0.0028547,,,,,
244.474,52.52,0.0028709,,,,,
245.537,52.78,0.0028869,,,,,
246.606,53.04,0.0029028,,,,,
247.672,53.3,0.0029186,,,,,
248.741,53.56,0.0029349,,,,,
249.793,53.82,0.0029507,,,,,
250.854,54.08,0.0029665,,,,,
251.917,54.34,0.0029826,,,,,
252.977,54.6,0.0029985,,,,,
254.025,54.86,0.0030145,,,,,
255.082,55.12,0.0030302,,,,,
256.137,55.38,0.0030464,,,,,
257.194,55.64,0.003062,,,,,
258.231,55.9,0.0030775,,,,,
259.285,56.16,0.0030934,,,,,
260.327,56.42,0.0031092,,,,,
261.36,56.68,0.0031246,,,,,
262.4,56.94,0.0031404,,,,,
263.45,57.2,0.0031562,,,,,
264.49,57.46,0.0031719,,,,,
265.532,57.72,0.0031875,,,,,
266.572,57.98,0.0032032,,,,,
267.605,58.24,0.0032186,,,,,
268.64,58.5,0.0032345,,,,,
269.674,58.76,0.0032498,,,,,
270.71,59.02,0.0032653,,,,,
271.732,59.28,0.0032805,,,,,
272.765,59.54,0.0032961,,,,,
273.794,59.8,0.0033117,,,,,
274.807,60.06,0.0033271,,,,,
275.842,60.32,0.0033428,,,,,
276.861,60.58,0.003358,,,,,
277.897,60.84,0.0033735,,,,,
278.919,61.1,0.0033886,,,,,
279.934,61.36,0.0034039,,,,,
280.952,61.62,0.0034194,,,,,
281.974,61.88,0.0034344,,,,,
282.987,62.14,0.0034497,,,,,
283.998,62.4,0.0034649,,,,,
285.007,62.66,0.0034801,,,,,
286.028,62.92,0.0034953,,,,,
287.038,63.18,0.0035106,,,,,
288.045,63.44,0.0035257,,,,,
289.049,63.7,0.003541,,,,,
290.062,63.96,0.0035561,,,,,
291.065,64.22,0.0035713,,,,,
292.07,64.48,0.0035864,,,,,
293.062,64.74,0.0036014,,,,,
294.062,65,0.0036164,,,,,
295.065,65.26,0.0036315,,,,,
296.066,65.52,0.0036465,,,,,
297.054,65.78,0.0036614,,,,,
298.058,66.04,0.0036765,,,,,
299.047,66.3,0.0036911,,,,,
300.034,66.56,0.0037062,,,,,
301.027,66.82,0.003721,,,,,
302.014,67.08,0.0037358,,,,,
303.02,67.34,0.0037507,,,,,
304.009,67.6,0.0037652,,,,,
304.993,67.86,0.0037799,,,,,
305.978,68.12,0.0037948,,,,,
306.962,68.38,0.0038095,,,,,
307.943,68.64,0.0038242,,,,,
308.927,68.9,0.0038389,,,,,
309.908,69.16,0.0038539,,,,,
310.893,69.42,0.0038684,,,,,
311.859,69.68,0.0038832,,,,,
312.841,69.94,0.003898,,,,,
313.814,70.2,0.0039126,,,,,
314.783,70.46,0.003927,,,,,
315.752,70.72,0.0039418,,,,,
316.727,70.98,0.0039563,,,,,
317.7,71.24,0.0039708,,,,,
318.677,71.5,0.0039854,,,,,
319.634,71.76,0.0039998,,,,,
320.609,72.02,0.0040143,,,,,
321.571,72.28,0.004029,,,,,
322.526,72.54,0.0040432,,,,,
323.505,72.8,0.0040579,,,,,
324.452,73.06,0.0040724,,,,,
325.416,73.32,0.0040869,,,,,
326.379,73.58,0.0041014,,,,,
327.327,73.84,0.0041155,,,,,
328.286,74.1,0.0041302,,,,,
329.241,74.36,0.0041446,,,,,
330.191,74.62,0.0041589,,,,,
331.141,74.88,0.0041728,,,,,
332.09,75.14,0.0041873,,,,,
333.044,75.4,0.0042016,,,,,
333.993,75.66,0.0042157,,,,,
334.941,75.92,0.00423,,,,,
335.903,76.18,0.0042442,,,,,
336.863,76.44,0.0042586,,,,,
337.801,76.7,0.0042728,,,,,
338.753,76.96,0.0042871,,,,,
339.703,77.22,0.004301,,,,,
340.649,77.48,0.0043153,,,,,
341.586,77.74,0.0043291,,,,,
342.533,78,0.0043435,,,,,
343.47,78.26,0.0043573,,,,,
344.407,78.52,0.0043713,,,,,
345.351,78.78,0.0043855,,,,,
346.29,79.04,0.0043997,,,,,
347.229,79.3,0.0044137,,,,,
348.168,79.56,0.0044276,,,,,
349.095,79.82,0.0044415,,,,,
350.025,80.08,0.0044556,,,,,
350.96,80.34,0.0044694,,,,,
351.889,80.6,0.0044835,,,,,
352.819,80.86,0.0044974,,,,,
353.747,81.12,0.0045114,,,,,
354.677,81.38,0.0045253,,,,,
355.594,81.64,0.0045391,,,,,
356.527,81.9,0.0045531,,,,,
357.457,82.16,0.0045673,,,,,
358.383,82.42,0.0045811,,,,,
359.302,82.68,0.0045948,,,,,
360.218,82.94,0.0046086,,,,,
361.141,83.2,0.0046226,,,,,
362.06,83.46,0.0046362,,,,,
362.977,83.72,0.0046499,,,,,
363.893,83.98,0.0046639,,,,,
364.818,84.24,0.0046776,,,,,
365.726,84.5,0.0046914,,,,,
366.636,84.76,0.0047051,,,,,
367.552,85.02,0.004719,,,,,
368.461,85.28,0.0047327,,,,,
369.369,85.54,0.0047463,,,,,
370.288,85.8,0.00476,,,,,
371.196,86.06,0.0047737,,,,,
372.101,86.32,0.0047872,,,,,
373.012,86.58,0.0048008,,,,,
373.925,86.84,0.0048144,,,,,
374.831,87.1,0.0048278,,,,,
375.731,87.36,0.0048416,,,,,
376.636,87.62,0.0048552,,,,,
377.538,87.88,0.0048687,,,,,
378.44,88.14,0.0048821,,,,,
379.345,88.4,0.004896,,,,,
380.246,88.66,0.0049092,,,,,
381.141,88.92,0.0049229,,,,,
382.039,89.18,0.0049363,,,,,
382.939,89.44,0.0049499,,,,,
383.833,89.7,0.0049634,,,,,
384.73,89.96,0.0049769,,,,,
385.618,90.22,0.0049902,,,,,
386.504,90.48,0.0050036,,,,,
387.403,90.74,0.0050171,,,,,
388.295,91,0.0050304,,,,,
389.189,91.26,0.0050438,,,,,
390.077,91.52,0.0050572,,,,,
390.964,91.78,0.0050707,,,,,
391.856,92.04,0.005084,,,,,
392.74,92.3,0.0050972,,,,,
393.619,92.56,0.0051105,,,,,
394.501,92.82,0.0051236,,,,,
395.386,93.08,0.005137,,,,,
396.257,93.34,0.0051504,,,,,
397.141,93.6,0.0051632,,,,,
398.029,93.86,0.0051767,,,,,
398.909,94.12,0.00519,,,,,
399.795,94.38,0.0052031,,,,,
400.683,94.64,0.0052168,,,,,
401.574,94.9,0.00523,,,,,
402.454,95.16,0.0052433,,,,,
403.336,95.42,0.0052565,,,,,
404.213,95.68,0.0052696,,,,,
405.091,95.94,0.0052828,,,,,
405.961,96.2,0.0052959,,,,,
406.843,96.46,0.005309,,,,,
407.718,96.72,0.0053222,,,,,
408.585,96.98,0.0053353,,,,,
409.462,97.24,0.0053485,,,,,
410.334,97.5,0.0053614,,,,,
411.211,97.76,0.0053746,,,,,
412.078,98.02,0.0053876,,,,,
412.952,98.28,0.0054007,,,,,
413.821,98.54,0.0054138,,,,,
414.686,98.8,0.0054267,,,,,
415.556,99.06,0.0054398,,,,,
416.429,99.32,0.0054528,,,,,
417.287,99.58,0.0054656,,,,,
418.156,99.84,0.0054785,,,,,
419.015,100.1,0.0054915,,,,,
419.883,100.36,0.0055046,,,,,
420.754,100.62,0.0055177,,,,,
421.623,100.88,0.0055306,,,,,
422.488,101.14,0.0055436,,,,,
423.351,101.4,0.0055564,,,,,
424.219,101.66,0.0055693,,,,,
425.081,101.92,0.0055825,,,,,
425.93,102.18,0.0056003,,,,,
426.787,102.44,0.0056135,,,,,
427.644,102.7,0.0056264,,,,,
428.497,102.96,0.0056389,,,,,
429.35,103.22,0.0056519,,,,,
430.203,103.48,0.0056645,,,,,
431.053,103.74,0.0056774,,,,,
431.902,104,0.00569,,,,,
432.754,104.26,0.0057027,,,,,
433.61,104.52,0.0057154,,,,,
434.461,104.78,0.0057286,,,,,
435.312,105.04,0.0057413,,,,,
436.157,105.3,0.0057544,,,,,
437.003,105.56,0.0057674,,,,,
437.847,105.82,0.0057807,,,,,
438.683,106.08,0.0057938,,,,,
439.517,106.34,0.0058068,,,,,
440.336,106.6,0.0058197,,,,,
441.169,106.86,0.0058329,,,,,
441.991,107.12,0.005846,,,,,
442.821,107.38,0.005859,,,,,
443.646,107.64,0.0058717,,,,,
444.469,107.9,0.0058845,,,,,
445.304,108.16,0.0058971,,,,,
446.139,108.42,0.0059096,,,,,
446.977,108.68,0.0059219,,,,,
447.821,108.94,0.0059342,,,,,
448.676,109.2,0.0059465,,,,,
449.534,109.46,0.0059588,,,,,
450.412,109.72,0.0059713,,,,,
451.283,109.98,0.0059836,,,,,
452.16,110.24,0.005996,,,,,
453.046,110.5,0.0060086,,,,,
453.923,110.76,0.0060208,,,,,
454.808,111.02,0.0060338,,,,,
455.695,111.28,0.0060466,,,,,
456.587,111.54,0.0060594,,,,,
457.469,111.8,0.0060723,,,,,
458.347,112.06,0.0060853,,,,,
459.225,112.32,0.0060982,,,,,
460.101,112.58,0.0061112,,,,,
460.974,112.84,0.0061242,,,,,
461.838,113.1,0.0061371,,,,,
462.7,113.36,0.00615,,,,,
463.563,113.62,0.0061632,,,,,
464.422,113.88,0.006176,,,,,
465.279,114.14,0.0061886,,,,,
466.13,114.4,0.0062015,,,,,
466.974,114.66,0.0062141,,,,,
467.821,114.92,0.0062266,,,,,
468.666,115.18,0.0062394,,,,,
469.523,115.44,0.0062521,,,,,
470.356,115.7,0.006265,,,,,
471.207,115.96,0.0062776,,,,,
472.044,116.22,0.0062902,,,,,
472.877,116.48,0.0063029,,,,,
473.709,116.74,0.0063156,,,,,
474.537,117,0.0063279,,,,,
475.369,117.26,0.0063408,,,,,
476.193,117.52,0.0063531,,,,,
477.018,117.78,0.0063659,,,,,
477.842,118.04,0.006378,,,,,
478.66,118.3,0.0063905,,,,,
479.479,118.56,0.0064029,,,,,
480.297,118.82,0.0064151,,,,,
481.099,119.08,0.0064274,,,,,
481.917,119.34,0.0064398,,,,,
482.733,119.6,0.0064522,,,,,
483.545,119.86,0.0064644,,,,,
484.354,120.12,0.0064766,,,,,
485.165,120.38,0.006489,,,,,
485.975,120.64,0.0065013,,,,,
486.784,120.9,0.0065134,,,,,
487.588,121.16,0.006526,,,,,
488.392,121.42,0.006538,,,,,
489.194,121.68,0.0065501,,,,,
490,121.94,0.0065624,,,,,
490.798,122.2,0.0065746,,,,,
491.6,122.46,0.0065866,,,,,
492.401,122.72,0.0065987,,,,,
493.2,122.98,0.0066108,,,,,
493.998,123.24,0.0066229,,,,,
494.798,123.5,0.0066352,,,,,
495.592,123.76,0.006647,,,,,
496.391,124.02,0.006659,,,,,
497.189,124.28,0.0066712,,,,,
497.983,124.54,0.0066831,,,,,
498.78,124.8,0.0066951,,,,,
499.574,125.06,0.0067072,,,,,
500.361,125.32,0.0067187,,,,,
501.159,125.58,0.006731,,,,,
501.947,125.84,0.0067426,,,,,
502.744,126.1,0.0067547,,,,,
503.535,126.36,0.0067666,,,,,
504.324,126.62,0.0067785,,,,,
505.118,126.88,0.0067903,,,,,
505.911,127.14,0.0068023,,,,,
506.703,127.4,0.0068142,,,,,
507.489,127.66,0.0068261,,,,,
508.282,127.92,0.0068378,,,,,
509.069,128.18,0.0068494,,,,,
509.863,128.44,0.0068613,,,,,
510.65,128.7,0.0068731,,,,,
511.438,128.96,0.0068849,,,,,
512.225,129.22,0.0068967,,,,,
513.011,129.48,0.0069083,,,,,
513.802,129.74,0.0069205,,,,,
514.587,130,0.0069321,,,,,
515.369,130.26,0.0069439,,,,,
516.156,130.52,0.0069559,,,,,
516.94,130.78,0.0069676,,,,,
517.723,131.04,0.0069797,,,,,
518.503,131.3,0.0069912,,,,,
519.281,131.56,0.0070028,,,,,
520.067,131.82,0.0070149,,,,,
520.846,132.08,0.0070265,,,,,
521.634,132.34,0.0070384,,,,,
522.41,132.6,0.0070502,,,,,
523.197,132.86,0.0070616,,,,,
523.985,133.12,0.0070736,,,,,
524.764,133.38,0.0070854,,,,,
525.548,133.64,0.0070972,,,,,
526.324,133.9,0.0071088,,,,,
527.104,134.16,0.0071207,,,,,
527.877,134.42,0.0071321,,,,,
528.673,134.68,0.0071442,,,,,
529.457,134.94,0.0071559,,,,,
530.245,135.2,0.0071679,,,,,
531.015,135.46,0.0071795,,,,,
531.792,135.72,0.0071914,,,,,
532.568,135.98,0.0072034,,,,,
533.344,136.24,0.007215,,,,,
534.124,136.5,0.0072268,,,,,
534.906,136.76,0.0072385,,,,,
535.675,137.02,0.0072499,,,,,
536.444,137.28,0.0072617,,,,,
537.219,137.54,0.0072735,,,,,
537.994,137.8,0.0072852,,,,,
538.774,138.06,0.0072971,,,,,
539.557,138.32,0.0073089,,,,,
540.337,138.58,0.0073205,,,,,
541.11,138.84,0.0073321,,,,,
541.887,139.1,0.0073441,,,,,
542.663,139.36,0.0073559,,,,,
543.441,139.62,0.0073677,,,,,
544.209,139.88,0.0073794,,,,,
544.982,140.14,0.0073912,,,,,
545.757,140.4,0.0074033,,,,,
546.53,140.66,0.0074147,,,,,
547.298,140.92,0.0074264,,,,,
548.069,141.18,0.007438,,,,,
548.838,141.44,0.0074495,,,,,
549.608,141.7,0.0074611,,,,,
550.382,141.96,0.0074728,,,,,
551.16,142.22,0.0074846,,,,,
551.926,142.48,0.0074961,,,,,
552.696,142.74,0.0075077,,,,,
553.461,143,0.0075192,,,,,
554.229,143.26,0.0075308,,,,,
555,143.52,0.0075423,,,,,
555.768,143.78,0.0075543,,,,,
556.535,144.04,0.0075656,,,,,
557.3,144.3,0.0075774,,,,,
558.071,144.56,0.0075889,,,,,
558.835,144.82,0.0076006,,,,,
559.59,145.08,0.0076122,,,,,
560.354,145.34,0.0076238,,,,,
561.11,145.6,0.0076354,,,,,
561.868,145.86,0.0076472,,,,,
562.627,146.12,0.0076592,,,,,
563.382,146.38,0.007671,,,,,
564.136,146.64,0.0076827,,,,,
564.888,146.9,0.0076946,,,,,
565.637,147.16,0.0077064,,,,,
566.385,147.42,0.0077182,,,,,
567.13,147.68,0.0077298,,,,,
567.869,147.94,0.0077413,,,,,
568.614,148.2,0.0077526,,,,,
569.361,148.46,0.0077638,,,,,
570.112,148.72,0.007775,,,,,
570.871,148.98,0.0077863,,,,,
571.637,149.24,0.0077976,,,,,
572.409,149.5,0.007809,,,,,
573.185,149.76,0.0078202,,,,,
573.967,150.02,0.0078317,,,,,
574.749,150.28,0.007843,,,,,
575.546,150.54,0.0078547,,,,,
576.332,150.8,0.0078664,,,,,
577.114,151.06,0.0078782,,,,,
577.897,151.32,0.0078897,,,,,
578.68,151.58,0.0079014,,,,,
579.459,151.84,0.0079131,,,,,
580.245,152.1,0.0079248,,,,,
581.019,152.36,0.0079367,,,,,
581.797,152.62,0.0079482,,,,,
582.557,152.88,0.00796,,,,,
583.325,153.14,0.0079715,,,,,
584.098,153.4,0.0079834,,,,,
584.857,153.66,0.0079946,,,,,
585.621,153.92,0.0080065,,,,,
586.387,154.18,0.0080182,,,,,
587.144,154.44,0.0080295,,,,,
587.912,154.7,0.0080412,,,,,
588.669,154.96,0.0080529,,,,,
589.429,155.22,0.0080646,,,,,
590.181,155.48,0.008076,,,,,
590.937,155.74,0.0080875,,,,,
591.689,156,0.008099,,,,,
592.455,156.26,0.0081106,,,,,
593.202,156.52,0.0081219,,,,,
593.948,156.78,0.0081333,,,,,
594.702,157.04,0.0081445,,,,,
595.452,157.3,0.0081561,,,,,
596.208,157.56,0.0081675,,,,,
596.95,157.82,0.008179,,,,,
597.693,158.08,0.0081903,,,,,
598.439,158.34,0.0082018,,,,,
599.19,158.6,0.0082132,,,,,
599.929,158.86,0.0082243,,,,,
600.667,159.12,0.008236,,,,,
601.417,159.38,0.0082472,,,,,
602.154,159.64,0.0082585,,,,,
602.899,159.9,0.0082698,,,,,
603.642,160.16,0.0082814,,,,,
604.384,160.42,0.0082927,,,,,
605.116,160.68,0.0083039,,,,,
605.852,160.94,0.0083153,,,,,
606.583,161.2,0.0083266,,,,,
607.324,161.46,0.0083382,,,,,
608.062,161.72,0.0083496,,,,,
608.796,161.98,0.0083606,,,,,
609.528,162.24,0.008372,,,,,
610.266,162.5,0.0083835,,,,,
611.001,162.76,0.0083943,,,,,
611.735,163.02,0.0084059,,,,,
612.468,163.28,0.008417,,,,,
613.196,163.54,0.008428,,,,,
613.938,163.8,0.0084393,,,,,
614.667,164.06,0.0084505,,,,,
615.402,164.32,0.0084617,,,,,
616.142,164.58,0.008473,,,,,
616.881,164.84,0.0084843,,,,,
617.614,165.1,0.0084957,,,,,
618.345,165.36,0.008507,,,,,
619.076,165.62,0.0085181,,,,,
619.806,165.88,0.0085295,,,,,
620.546,166.14,0.0085408,,,,,
621.282,166.4,0.0085519,,,,,
622.002,166.66,0.0085634,,,,,
622.738,166.92,0.0085746,,,,,
623.465,167.18,0.0085857,,,,,
624.19,167.44,0.0085972,,,,,
624.913,167.7,0.0086081,,,,,
625.632,167.96,0.0086189,,,,,
626.364,168.22,0.0086303,,,,,
627.092,168.48,0.0086415,,,,,
627.821,168.74,0.0086527,,,,,
628.55,169,0.0086634,,,,,
629.278,169.26,0.0086749,,,,,
630.004,169.52,0.0086857,,,,,
630.729,169.78,0.0086968,,,,,
631.457,170.04,0.0087081,,,,,
632.186,170.3,0.0087191,,,,,
632.91,170.56,0.0087305,,,,,
633.64,170.82,0.0087416,,,,,
634.376,171.08,0.0087529,,,,,
635.106,171.34,0.0087639,,,,,
635.832,171.6,0.0087753,,,,,
636.553,171.86,0.0087866,,,,,
637.282,172.12,0.0087978,,,,,
638.006,172.38,0.008809,,,,,
638.722,172.64,0.0088206,,,,,
639.445,172.9,0.008832,,,,,
640.162,173.16,0.0088435,,,,,
640.885,173.42,0.0088549,,,,,
641.592,173.68,0.0088666,,,,,
642.308,173.94,0.008878,,,,,
643.019,174.2,0.0088891,,,,,
643.717,174.46,0.0089008,,,,,
644.419,174.72,0.008912,,,,,
645.116,174.98,0.0089233,,,,,
645.817,175.24,0.0089345,,,,,
646.519,175.5,0.0089455,,,,,
647.22,175.76,0.0089565,,,,,
647.926,176.02,0.0089677,,,,,
648.633,176.28,0.0089786,,,,,
649.35,176.54,0.0089893,,,,,
650.082,176.8,0.0090005,,,,,
650.81,177.06,0.0090116,,,,,
651.543,177.32,0.0090226,,,,,
652.29,177.58,0.0090343,,,,,
653.026,177.84,0.0090455,,,,,
653.77,178.1,0.0090571,,,,,
654.506,178.36,0.0090682,,,,,
655.243,178.62,0.0090797,,,,,
655.976,178.88,0.0090913,,,,,
656.715,179.14,0.0091027,,,,,
657.449,179.4,0.0091143,,,,,
658.189,179.66,0.0091257,,,,,
658.923,179.92,0.0091375,,,,,
659.659,180.18,0.0091487,,,,,
660.386,180.44,0.0091599,,,,,
661.123,180.7,0.0091713,,,,,
661.85,180.96,0.0091824,,,,,
662.574,181.22,0.0091939,,,,,
663.307,181.48,0.009205,,,,,
664.028,181.74,0.0092166,,,,,
664.75,182,0.009228,,,,,
665.477,182.26,0.0092392,,,,,
666.195,182.52,0.0092507,,,,,
666.915,182.78,0.009262,,,,,
667.638,183.04,0.0092734,,,,,
668.351,183.3,0.0092845,,,,,
669.065,183.56,0.0092959,,,,,
669.788,183.82,0.009307,,,,,
670.499,184.08,0.0093184,,,,,
671.216,184.34,0.0093297,,,,,
671.928,184.6,0.0093408,,,,,
672.637,184.86,0.0093519,,,,,
673.348,185.12,0.0093634,,,,,
674.053,185.38,0.0093747,,,,,
674.761,185.64,0.0093859,,,,,
675.47,185.9,0.009397,,,,,
676.184,186.16,0.0094083,,,,,
676.896,186.42,0.0094193,,,,,
677.603,186.68,0.0094303,,,,,
678.312,186.94,0.0094411,,,,,
679.012,187.2,0.009452,,,,,
679.722,187.46,0.0094632,,,,,
680.424,187.72,0.0094742,,,,,
681.131,187.98,0.0094856,,,,,
681.826,188.24,0.0094965,,,,,
682.536,188.5,0.009508,,,,,
683.245,188.76,0.0095192,,,,,
683.958,189.02,0.0095304,,,,,
684.653,189.28,0.0095415,,,,,
685.358,189.54,0.0095527,,,,,
686.06,189.8,0.0095637,,,,,
686.757,190.06,0.0095749,,,,,
687.459,190.32,0.0095861,,,,,
688.156,190.58,0.0095972,,,,,
688.851,190.84,0.0096082,,,,,
689.538,191.1,0.0096192,,,,,
690.225,191.36,0.0096305,,,,,
690.91,191.62,0.0096412,,,,,
691.597,191.88,0.0096519,,,,,
692.283,192.14,0.0096628,,,,,
692.968,192.4,0.0096736,,,,,
693.655,192.66,0.0096844,,,,,
694.345,192.92,0.0096951,,,,,
695.026,193.18,0.009706,,,,,
695.713,193.44,0.0097167,,,,,
696.401,193.7,0.0097276,,,,,
697.088,193.96,0.0097386,,,,,
697.777,194.22,0.0097495,,,,,
698.472,194.48,0.0097605,,,,,
699.161,194.74,0.0097713,,,,,
699.849,195,0.0097825,,,,,
700.541,195.26,0.0097934,,,,,
701.236,195.52,0.0098046,,,,,
701.924,195.78,0.0098154,,,,,
702.613,196.04,0.0098258,,,,,
703.298,196.3,0.0098371,,,,,
703.987,196.56,0.0098482,,,,,
704.675,196.82,0.0098591,,,,,
705.366,197.08,0.0098701,,,,,
706.052,197.34,0.0098811,,,,,
706.74,197.6,0.0098922,,,,,
707.425,197.86,0.0099029,,,,,
708.113,198.12,0.0099137,,,,,
708.798,198.38,0.0099245,,,,,
709.489,198.64,0.0099357,,,,,
710.175,198.9,0.009947,,,,,
710.863,199.16,0.0099578,,,,,
711.555,199.42,0.0099682,,,,,
712.251,199.68,0.0099791,,,,,
712.936,199.94,0.00999,,,,,
713.627,200.2,0.01,,,,,
714.31,200.46,0.010012,,,,,
714.995,200.72,0.010022,,,,,
715.681,200.98,0.010033,,,,,
716.367,201.24,0.010044,,,,,
717.05,201.5,0.010055,,,,,
717.742,201.76,0.010066,,,,,
718.431,202.02,0.010077,,,,,
719.118,202.28,0.010088,,,,,
719.812,202.54,0.010099,,,,,
720.498,202.8,0.010111,,,,,
721.193,203.06,0.010122,,,,,
721.874,203.32,0.010133,,,,,
722.558,203.58,0.010144,,,,,
723.233,203.84,0.010156,,,,,
723.907,204.1,0.010167,,,,,
724.57,204.36,0.010178,,,,,
725.232,204.62,0.010189,,,,,
725.893,204.88,0.0102,,,,,
726.553,205.14,0.010211,,,,,
727.211,205.4,0.010222,,,,,
727.879,205.66,0.010233,,,,,
728.543,205.92,0.010243,,,,,
729.219,206.18,0.010254,,,,,
729.894,206.44,0.010264,,,,,
730.581,206.7,0.010275,,,,,
731.27,206.96,0.010285,,,,,
731.975,207.22,0.010296,,,,,
732.673,207.48,0.010306,,,,,
733.379,207.74,0.010317,,,,,
734.078,208,0.010328,,,,,
734.779,208.26,0.010339,,,,,
735.484,208.52,0.01035,,,,,
736.181,208.78,0.010361,,,,,
736.874,209.04,0.010372,,,,,
737.576,209.3,0.010383,,,,,
738.272,209.56,0.010394,,,,,
738.961,209.82,0.010405,,,,,
739.662,210.08,0.010416,,,,,
740.357,210.34,0.010427,,,,,
741.051,210.6,0.010437,,,,,
741.741,210.86,0.010448,,,,,
742.438,211.12,0.010459,,,,,
743.134,211.38,0.01047,,,,,
743.823,211.64,0.010481,,,,,
744.514,211.9,0.010492,,,,,
745.205,212.16,0.010503,,,,,
745.894,212.42,0.010514,,,,,
746.586,212.68,0.010525,,,,,
747.273,212.94,0.010536,,,,,
747.965,213.2,0.010547,,,,,
748.647,213.46,0.010558,,,,,
749.331,213.72,0.010569,,,,,
750.026,213.98,0.01058,,,,,
750.704,214.24,0.010591,,,,,
751.388,214.5,0.010602,,,,,
752.064,214.76,0.010612,,,,,
752.743,215.02,0.010623,,,,,
753.424,215.28,0.010634,,,,,
754.107,215.54,0.010645,,,,,
754.79,215.8,0.010656,,,,,
755.47,216.06,0.010667,,,,,
756.143,216.32,0.010677,,,,,
756.815,216.58,0.010687,,,,,
757.495,216.84,0.010698,,,,,
758.169,217.1,0.010708,,,,,
758.844,217.36,0.010719,,,,,
759.526,217.62,0.01073,,,,,
760.21,217.88,0.010741,,,,,
760.895,218.14,0.010752,,,,,
761.571,218.4,0.010763,,,,,
762.249,218.66,0.010773,,,,,
762.923,218.92,0.010784,,,,,
763.597,219.18,0.010795,,,,,
764.266,219.44,0.010805,,,,,
764.94,219.7,0.010818,,,,,
765.613,219.96,0.010829,,,,,
766.277,220.22,0.010839,,,,,
766.956,220.48,0.01085,,,,,
767.625,220.74,0.010861,,,,,
768.301,221,0.010871,,,,,
768.972,221.26,0.010882,,,,,
769.645,221.52,0.010893,,,,,
770.309,221.78,0.010903,,,,,
770.984,222.04,0.010914,,,,,
771.648,222.3,0.010924,,,,,
772.318,222.56,0.010934,,,,,
772.979,222.82,0.010945,,,,,
773.64,223.08,0.010955,,,,,
774.318,223.34,0.010967,,,,,
774.986,223.6,0.010978,,,,,
775.646,223.86,0.010988,,,,,
776.305,224.12,0.010998,,,,,
776.964,224.38,0.011008,,,,,
777.62,224.64,0.011019,,,,,
778.279,224.9,0.011028,,,,,
778.94,225.16,0.011039,,,,,
779.608,225.42,0.011049,,,,,
780.277,225.68,0.01106,,,,,
780.959,225.94,0.011071,,,,,
781.628,226.2,0.011081,,,,,
782.305,226.46,0.011092,,,,,
782.975,226.72,0.011102,,,,,
783.645,226.98,0.011113,,,,,
784.32,227.24,0.011124,,,,,
784.984,227.5,0.011134,,,,,
785.654,227.76,0.011145,,,,,
786.309,228.02,0.011156,,,,,
786.97,228.28,0.011166,,,,,
787.611,228.54,0.011177,,,,,
788.266,228.8,0.011187,,,,,
788.923,229.06,0.011197,,,,,
789.568,229.32,0.011208,,,,,
790.215,229.58,0.011218,,,,,
790.845,229.84,0.011228,,,,,
791.472,230.1,0.011239,,,,,
792.1,230.36,0.011249,,,,,
792.721,230.62,0.01126,,,,,
793.334,230.88,0.01127,,,,,
793.944,231.14,0.01128,,,,,
794.56,231.4,0.011291,,,,,
795.188,231.66,0.011301,,,,,
795.82,231.92,0.011311,,,,,
796.47,232.18,0.011321,,,,,
797.107,232.44,0.011332,,,,,
797.746,232.7,0.011342,,,,,
798.399,232.96,0.011353,,,,,
799.052,233.22,0.011363,,,,,
799.698,233.48,0.011372,,,,,
800.352,233.74,0.011383,,,,,
801.021,234,0.011393,,,,,
801.683,234.26,0.011403,,,,,
802.343,234.52,0.011414,,,,,
803.009,234.78,0.011424,,,,,
803.652,235.04,0.011434,,,,,
804.295,235.3,0.011445,,,,,
804.938,235.56,0.011456,,,,,
805.576,235.82,0.011466,,,,,
806.223,236.08,0.011476,,,,,
806.885,236.34,0.011486,,,,,
807.534,236.6,0.011496,,,,,
808.188,236.86,0.011506,,,,,
808.853,237.12,0.011517,,,,,
809.516,237.38,0.011527,,,,,
810.182,237.64,0.011538,,,,,
810.839,237.9,0.011548,,,,,
811.496,238.16,0.011558,,,,,
812.151,238.42,0.011569,,,,,
812.794,238.68,0.011579,,,,,
813.439,238.94,0.011589,,,,,
814.082,239.2,0.0116,,,,,
814.712,239.46,0.01161,,,,,
815.352,239.72,0.01162,,,,,
815.993,239.98,0.01163,,,,,
816.626,240.24,0.011641,,,,,
817.256,240.5,0.011651,,,,,
817.889,240.76,0.011661,,,,,
818.523,241.02,0.011671,,,,,
819.156,241.28,0.011681,,,,,
819.806,241.54,0.011691,,,,,
820.451,241.8,0.011701,,,,,
821.094,242.06,0.011711,,,,,
821.735,242.32,0.011721,,,,,
822.377,242.58,0.011731,,,,,
823.013,242.84,0.011742,,,,,
823.64,243.1,0.011752,,,,,
824.274,243.36,0.011765,,,,,
824.919,243.62,0.011775,,,,,
825.572,243.88,0.011784,,,,,
826.241,244.14,0.011795,,,,,
826.916,244.4,0.011805,,,,,
827.592,244.66,0.011815,,,,,
828.267,244.92,0.011825,,,,,
828.938,245.18,0.011836,,,,,
829.606,245.44,0.011847,,,,,
830.273,245.7,0.011857,,,,,
830.93,245.96,0.011868,,,,,
831.591,246.22,0.011878,,,,,
832.257,246.48,0.011888,,,,,
832.923,246.74,0.011898,,,,,
833.589,247,0.011911,,,,,
834.246,247.26,0.011921,,,,,
834.906,247.52,0.011932,,,,,
835.57,247.78,0.011942,,,,,
836.231,248.04,0.011952,,,,,
836.902,248.3,0.011962,,,,,
837.57,248.56,0.011972,,,,,
838.236,248.82,0.011983,,,,,
838.91,249.08,0.011993,,,,,
839.58,249.34,0.012003,,,,,
840.247,249.6,0.012014,,,,,
840.902,249.86,0.012024,,,,,
841.574,250.12,0.012035,,,,,
842.236,250.38,0.012045,,,,,
842.908,250.64,0.012056,,,,,
843.58,250.9,0.012066,,,,,
844.24,251.16,0.012076,,,,,
844.915,251.42,0.012087,,,,,
845.593,251.68,0.012097,,,,,
846.275,251.94,0.012108,,,,,
846.954,252.2,0.012118,,,,,
847.636,252.46,0.012129,,,,,
848.322,252.72,0.01214,,,,,
849.001,252.98,0.01215,,,,,
849.678,253.24,0.012161,,,,,
850.347,253.5,0.012172,,,,,
851.013,253.76,0.012183,,,,,
851.68,254.02,0.012193,,,,,
852.35,254.28,0.012205,,,,,
852.996,254.54,0.012215,,,,,
853.649,254.8,0.012226,,,,,
854.295,255.06,0.012236,,,,,
854.954,255.32,0.012247,,,,,
855.614,255.58,0.012257,,,,,
856.272,255.84,0.012268,,,,,
856.922,256.1,0.012278,,,,,
857.591,256.36,0.012289,,,,,
858.259,256.62,0.012299,,,,,
858.935,256.88,0.012309,,,,,
859.606,257.14,0.01232,,,,,
860.281,257.4,0.01233,,,,,
860.972,257.66,0.012341,,,,,
861.653,257.92,0.012351,,,,,
862.333,258.18,0.012362,,,,,
863.016,258.44,0.012373,,,,,
863.704,258.7,0.012384,,,,,
864.392,258.96,0.012395,,,,,
865.083,259.22,0.012405,,,,,
865.767,259.48,0.012416,,,,,
866.447,259.74,0.012427,,,,,
867.135,260,0.012438,,,,,
867.823,260.26,0.012449,,,,,
868.51,260.52,0.01246,,,,,
869.204,260.78,0.012471,,,,,
869.88,261.04,0.012482,,,,,
870.574,261.3,0.012493,,,,,
871.258,261.56,0.012504,,,,,
871.933,261.82,0.012515,,,,,
872.616,262.08,0.012526,,,,,
873.295,262.34,0.012537,,,,,
873.959,262.6,0.012548,,,,,
874.631,262.86,0.012559,,,,,
875.296,263.12,0.01257,,,,,
875.963,263.38,0.01258,,,,,
876.627,263.64,0.012591,,,,,
877.288,263.9,0.012602,,,,,
877.953,264.16,0.012613,,,,,
878.64,264.42,0.012623,,,,,
879.374,264.68,0.012633,,,,,
880.155,264.94,0.012644,,,,,
880.928,265.2,0.012656,,,,,
881.676,265.46,0.012668,,,,,
882.403,265.72,0.012681,,,,,
883.092,265.98,0.012693,,,,,
883.751,266.24,0.012705,,,,,
884.397,266.5,0.012716,,,,,
885.04,266.76,0.012727,,,,,
885.675,267.02,0.012737,,,,,
886.323,267.28,0.012748,,,,,
886.97,267.54,0.012758,,,,,
887.625,267.8,0.012769,,,,,
888.287,268.06,0.01278,,,,,
888.945,268.32,0.01279,,,,,
889.611,268.58,0.012801,,,,,
890.269,268.84,0.012812,,,,,
890.935,269.1,0.012823,,,,,
891.597,269.36,0.012833,,,,,
892.263,269.62,0.012843,,,,,
892.935,269.88,0.012854,,,,,
893.614,270.14,0.012864,,,,,
894.283,270.4,0.012874,,,,,
894.965,270.66,0.012885,,,,,
895.646,270.92,0.012896,,,,,
896.325,271.18,0.012907,,,,,
897.005,271.44,0.012918,,,,,
897.682,271.7,0.012929,,,,,
898.357,271.96,0.012939,,,,,
899.027,272.22,0.01295,,,,,
899.694,272.48,0.012961,,,,,
900.36,272.74,0.012972,,,,,
901.016,273,0.012983,,,,,
901.679,273.26,0.012994,,,,,
902.334,273.52,0.013004,,,,,
902.999,273.78,0.013015,,,,,
903.652,274.04,0.013026,,,,,
904.306,274.3,0.013036,,,,,
904.955,274.56,0.013047,,,,,
905.604,274.82,0.013058,,,,,
906.252,275.08,0.013069,,,,,
906.888,275.34,0.013079,,,,,
907.519,275.6,0.01309,,,,,
908.151,275.86,0.013101,,,,,
908.761,276.12,0.013111,,,,,
909.375,276.38,0.013122,,,,,
909.966,276.64,0.013132,,,,,
910.524,276.9,0.013143,,,,,
911.061,277.16,0.013152,,,,,
911.579,277.42,0.013162,,,,,
912.099,277.68,0.013171,,,,,
912.647,277.94,0.01318,,,,,
913.222,278.2,0.013189,,,,,
913.82,278.46,0.013198,,,,,
914.439,278.72,0.013208,,,,,
915.058,278.98,0.013218,,,,,
915.68,279.24,0.013228,,,,,
916.3,279.5,0.013238,,,,,
916.911,279.76,0.013248,,,,,
917.504,280.02,0.013258,,,,,
918.101,280.28,0.013267,,,,,
918.678,280.54,0.013277,,,,,
919.235,280.8,0.013287,,,,,
919.77,281.06,0.013297,,,,,
920.288,281.32,0.013306,,,,,
920.788,281.58,0.013315,,,,,
921.274,281.84,0.013323,,,,,
921.764,282.1,0.013331,,,,,
922.285,282.36,0.013339,,,,,
922.854,282.62,0.013347,,,,,
923.473,282.88,0.013355,,,,,
924.132,283.14,0.013365,,,,,
924.814,283.4,0.013375,,,,,
925.501,283.66,0.013384,,,,,
926.199,283.92,0.013395,,,,,
926.891,284.18,0.013405,,,,,
927.574,284.44,0.013417,,,,,
928.246,284.7,0.013428,,,,,
928.911,284.96,0.013438,,,,,
929.574,285.22,0.013449,,,,,
930.221,285.48,0.01346,,,,,
930.877,285.74,0.01347,,,,,
931.517,286,0.013481,,,,,
932.166,286.26,0.013491,,,,,
932.824,286.52,0.013501,,,,,
933.487,286.78,0.013512,,,,,
934.169,287.04,0.013522,,,,,
934.845,287.3,0.013533,,,,,
935.511,287.56,0.013544,,,,,
936.179,287.82,0.013555,,,,,
936.836,288.08,0.013566,,,,,
937.496,288.34,0.013576,,,,,
938.164,288.6,0.013587,,,,,
938.827,288.86,0.013597,,,,,
939.503,289.12,0.013608,,,,,
940.176,289.38,0.013618,,,,,
940.849,289.64,0.013629,,,,,
941.523,289.9,0.01364,,,,,
942.191,290.16,0.013651,,,,,
942.862,290.42,0.013662,,,,,
943.509,290.68,0.013672,,,,,
944.176,290.94,0.013683,,,,,
944.834,291.2,0.013693,,,,,
945.499,291.46,0.013704,,,,,
946.16,291.72,0.013715,,,,,
946.815,291.98,0.013725,,,,,
947.468,292.24,0.013736,,,,,
948.13,292.5,0.013747,,,,,
948.791,292.76,0.013757,,,,,
949.457,293.02,0.013768,,,,,
950.125,293.28,0.013778,,,,,
950.807,293.54,0.013789,,,,,
951.499,293.8,0.013799,,,,,
952.187,294.06,0.01381,,,,,
952.873,294.32,0.013821,,,,,
953.56,294.58,0.013832,,,,,
954.233,294.84,0.013843,,,,,
954.918,295.1,0.013854,,,,,
955.599,295.36,0.013865,,,,,
956.269,295.62,0.013876,,,,,
956.955,295.88,0.013887,,,,,
957.636,296.14,0.013898,,,,,
958.313,296.4,0.013909,,,,,
958.99,296.66,0.01392,,,,,
959.669,296.92,0.013931,,,,,
960.35,297.18,0.013941,,,,,
961.017,297.44,0.013952,,,,,
961.684,297.7,0.013963,,,,,
962.353,297.96,0.013974,,,,,
963.022,298.22,0.013985,,,,,
963.7,298.48,0.013996,,,,,
964.371,298.74,0.014006,,,,,
965.048,299,0.014017,,,,,
965.722,299.26,0.014028,,,,,
966.407,299.52,0.014039,,,,,
967.092,299.78,0.01405,,,,,
967.777,300.04,0.014061,,,,,
968.462,300.3,0.014072,,,,,
969.155,300.56,0.014082,,,,,
969.842,300.82,0.014094,,,,,
970.534,301.08,0.014105,,,,,
971.238,301.34,0.014116,,,,,
971.95,301.6,0.014127,,,,,
972.673,301.86,0.014138,,,,,
973.404,302.12,0.014149,,,,,
974.129,302.38,0.014161,,,,,
974.843,302.64,0.014173,,,,,
975.546,302.9,0.014184,,,,,
976.27,303.16,0.014195,,,,,
976.992,303.42,0.014206,,,,,
977.71,303.68,0.014218,,,,,
978.438,303.94,0.01423,,,,,
979.147,304.2,0.014241,,,,,
979.854,304.46,0.014253,,,,,
980.588,304.72,0.014264,,,,,
981.333,304.98,0.014275,,,,,
982.08,305.24,0.014287,,,,,
982.812,305.5,0.014299,,,,,
983.536,305.76,0.014311,,,,,
984.254,306.02,0.014323,,,,,
984.951,306.28,0.014334,,,,,
985.631,306.54,0.014346,,,,,
986.308,306.8,0.014357,,,,,
986.993,307.06,0.014368,,,,,
987.686,307.32,0.014379,,,,,
988.382,307.58,0.01439,,,,,
989.028,307.84,0.0144,,,,,
989.736,308.1,0.014411,,,,,
990.443,308.36,0.014423,,,,,
991.145,308.62,0.014434,,,,,
991.855,308.88,0.014445,,,,,
992.567,309.14,0.014457,,,,,
993.277,309.4,0.014468,,,,,
993.999,309.66,0.01448,,,,,
994.709,309.92,0.014491,,,,,
995.413,310.18,0.014503,,,,,
996.107,310.44,0.014515,,,,,
996.787,310.7,0.014526,,,,,
997.475,310.96,0.014537,,,,,
998.172,311.22,0.014548,,,,,
998.866,311.48,0.014559,,,,,
999.573,311.74,0.01457,,,,,
1000.27,312,0.014582,,,,,
1000.97,312.26,0.014593,,,,,
1001.66,312.52,0.014604,,,,,
1002.35,312.78,0.014616,,,,,
1003.04,313.04,0.014626,,,,,
1003.74,313.3,0.014638,,,,,
1004.42,313.56,0.014649,,,,,
1005.12,313.82,0.01466,,,,,
1005.81,314.08,0.014671,,,,,
1006.5,314.34,0.014683,,,,,
1007.2,314.6,0.014694,,,,,
1007.9,314.86,0.014705,,,,,
1008.6,315.12,0.014717,,,,,
1009.3,315.38,0.014728,,,,,
1010,315.64,0.014739,,,,,
1010.69,315.9,0.014751,,,,,
1011.39,316.16,0.014762,,,,,
1012.08,316.42,0.014774,,,,,
1012.8,316.68,0.014785,,,,,
1013.54,316.94,0.014797,,,,,
1014.26,317.2,0.014809,,,,,
1014.97,317.46,0.014821,,,,,
1015.69,317.72,0.014832,,,,,
1016.42,317.98,0.014844,,,,,
1017.13,318.24,0.014856,,,,,
1017.83,318.5,0.014865,,,,,
1018.52,318.76,0.014876,,,,,
1019.21,319.02,0.014887,,,,,
1019.92,319.28,0.014898,,,,,
1020.63,319.54,0.01491,,,,,
1021.36,319.8,0.014921,,,,,
1022.09,320.06,0.014932,,,,,
1022.81,320.32,0.014945,,,,,
1023.51,320.58,0.014956,,,,,
1024.21,320.84,0.014968,,,,,
1024.88,321.1,0.014979,,,,,
1025.58,321.36,0.01499,,,,,
1026.28,321.62,0.015001,,,,,
1026.98,321.88,0.015013,,,,,
1027.7,322.14,0.015024,,,,,
1028.44,322.4,0.015035,,,,,
1029.17,322.66,0.015048,,,,,
1029.89,322.92,0.01506,,,,,
1030.6,323.18,0.015071,,,,,
1031.3,323.44,0.015083,,,,,
1031.99,323.7,0.015095,,,,,
1032.71,323.96,0.015106,,,,,
1033.43,324.22,0.015118,,,,,
1034.15,324.48,0.015129,,,,,
1034.88,324.74,0.015141,,,,,
1035.62,325,0.015153,,,,,
1036.34,325.26,0.015165,,,,,
1037.06,325.52,0.015177,,,,,
1037.76,325.78,0.015189,,,,,
1038.47,326.04,0.015201,,,,,
1039.16,326.3,0.015213,,,,,
1039.85,326.56,0.015224,,,,,
1040.58,326.82,0.015236,,,,,
1041.31,327.08,0.015248,,,,,
1042.06,327.34,0.01526,,,,,
1042.79,327.6,0.015272,,,,,
1043.5,327.86,0.015284,,,,,
1044.21,328.12,0.015296,,,,,
1044.92,328.38,0.015308,,,,,
1045.6,328.64,0.01532,,,,,
1046.31,328.9,0.015332,,,,,
1047.02,329.16,0.015344,,,,,
1047.74,329.42,0.015355,,,,,
1048.44,329.68,0.015367,,,,,
1049.16,329.94,0.015379,,,,,
1049.85,330.2,0.015391,,,,,
1050.55,330.46,0.015403,,,,,
1051.25,330.72,0.015413,,,,,
1051.97,330.98,0.015424,,,,,
1052.71,331.24,0.015436,,,,,
1053.4,331.5,0.015448,,,,,
1054.12,331.76,0.01546,,,,,
1054.85,332.02,0.015472,,,,,
1055.56,332.28,0.015484,,,,,
1056.27,332.54,0.015495,,,,,
1057.04,332.8,0.015507,,,,,
1057.84,333.06,0.01552,,,,,
1058.56,333.32,0.015533,,,,,
1059.23,333.58,0.015546,,,,,
1059.89,333.84,0.015558,,,,,
1060.53,334.1,0.015569,,,,,
1061.19,334.36,0.01558,,,,,
1061.91,334.62,0.015591,,,,,
1062.67,334.88,0.015603,,,,,
1063.42,335.14,0.015615,,,,,
1064.16,335.4,0.015628,,,,,
1064.87,335.66,0.01564,,,,,
1065.56,335.92,0.015652,,,,,
1066.25,336.18,0.015664,,,,,
1066.93,336.44,0.015675,,,,,
1067.6,336.7,0.015687,,,,,
1068.3,336.96,0.015698,,,,,
1068.99,337.22,0.015709,,,,,
1069.7,337.48,0.015721,,,,,
1070.42,337.74,0.015732,,,,,
1071.13,338,0.015745,,,,,
1071.85,338.26,0.015757,,,,,
1072.57,338.52,0.015769,,,,,
1073.32,338.78,0.015781,,,,,
1074.06,339.04,0.015793,,,,,
1074.8,339.3,0.015805,,,,,
1075.51,339.56,0.015817,,,,,
1076.22,339.82,0.015835,,,,,
1076.93,340.08,0.015847,,,,,
1077.64,340.34,0.015859,,,,,
1078.36,340.6,0.01587,,,,,
1079.08,340.86,0.015882,,,,,
1079.79,341.12,0.015894,,,,,
1080.52,341.38,0.015906,,,,,
1081.23,341.64,0.015918,,,,,
1081.95,341.9,0.01593,,,,,
1082.64,342.16,0.015942,,,,,
1083.37,342.42,0.015953,,,,,
1084.13,342.68,0.015965,,,,,
1084.92,342.94,0.015977,,,,,
1085.77,343.2,0.015991,,,,,
1086.64,343.46,0.016004,,,,,
1087.5,343.72,0.016018,,,,,
1088.31,343.98,0.016033,,,,,
1089.05,344.24,0.016047,,,,,
1089.73,344.5,0.016061,,,,,
1090.36,344.76,0.016072,,,,,
1090.99,345.02,0.016083,,,,,
1091.6,345.28,0.016094,,,,,
1092.23,345.54,0.016105,,,,,
1092.89,345.8,0.016115,,,,,
1093.56,346.06,0.016126,,,,,
1094.27,346.32,0.016137,,,,,
1095.05,346.58,0.016148,,,,,
1095.84,346.84,0.016161,,,,,
1096.6,347.1,0.016174,,,,,
1097.33,347.36,0.016187,,,,,
1098.04,347.62,0.016199,,,,,
1098.71,347.88,0.016211,,,,,
1099.39,348.14,0.016223,,,,,
1100.06,348.4,0.016234,,,,,
1100.75,348.66,0.016245,,,,,
1101.45,348.92,0.016257,,,,,
1102.14,349.18,0.016269,,,,,
1102.85,349.44,0.01628,,,,,
1103.57,349.7,0.016292,,,,,
1104.31,349.96,0.016304,,,,,
1105.07,350.22,0.016317,,,,,
1105.83,350.48,0.016329,,,,,
1106.59,350.74,0.016342,,,,,
1107.35,351,0.016355,,,,,
1108.1,351.26,0.016367,,,,,
1108.83,351.52,0.01638,,,,,
1109.57,351.78,0.01639,,,,,
1110.3,352.04,0.016402,,,,,
1111.04,352.3,0.016413,,,,,
1111.78,352.56,0.016425,,,,,
1112.53,352.82,0.016438,,,,,
1113.27,353.08,0.01645,,,,,
1114.03,353.34,0.016463,,,,,
1114.79,353.6,0.016475,,,,,
1115.57,353.86,0.016488,,,,,
1116.34,354.12,0.016501,,,,,
1117.1,354.38,0.016514,,,,,
1117.83,354.64,0.016527,,,,,
1118.57,354.9,0.016539,,,,,
1119.3,355.16,0.016551,,,,,
1120.05,355.42,0.016564,,,,,
1120.8,355.68,0.016576,,,,,
1121.55,355.94,0.016589,,,,,
1122.3,356.2,0.016601,,,,,
1123.05,356.46,0.016614,,,,,
1123.81,356.72,0.016627,,,,,
1124.57,356.98,0.016639,,,,,
1125.32,357.24,0.016652,,,,,
1126.08,357.5,0.016664,,,,,
1126.82,357.76,0.016677,,,,,
1127.58,358.02,0.01669,,,,,
1128.32,358.28,0.016703,,,,,
1129.07,358.54,0.016716,,,,,
1129.81,358.8,0.016728,,,,,
1130.53,359.06,0.016741,,,,,
1131.26,359.32,0.016753,,,,,
1131.98,359.58,0.016766,,,,,
1132.7,359.84,0.016778,,,,,
1133.42,360.1,0.016791,,,,,
1134.1,360.36,0.016803,,,,,
1134.8,360.62,0.016815,,,,,
1135.48,360.88,0.016827,,,,,
1136.15,361.14,0.016839,,,,,
1136.83,361.4,0.01685,,,,,
1137.5,361.66,0.016861,,,,,
1138.18,361.92,0.016873,,,,,
1138.88,362.18,0.016885,,,,,
1139.57,362.44,0.016896,,,,,
1140.27,362.7,0.016908,,,,,
1140.97,362.96,0.016919,,,,,
1141.69,363.22,0.016931,,,,,
1142.42,363.48,0.016943,,,,,
1143.17,363.74,0.016956,,,,,
1143.92,364,0.016968,,,,,
1144.66,364.26,0.01698,,,,,
1145.41,364.52,0.016993,,,,,
1146.16,364.78,0.017005,,,,,
1146.9,365.04,0.017017,,,,,
1147.64,365.3,0.01703,,,,,
1148.37,365.56,0.017042,,,,,
1149.11,365.82,0.017055,,,,,
1149.85,366.08,0.017067,,,,,
1150.6,366.34,0.017079,,,,,
1151.34,366.6,0.017092,,,,,
1152.08,366.86,0.017104,,,,,
1152.81,367.12,0.017116,,,,,
1153.54,367.38,0.017128,,,,,
1154.27,367.64,0.01714,,,,,
1155.01,367.9,0.017152,,,,,
1155.73,368.16,0.017165,,,,,
1156.45,368.42,0.017176,,,,,
1157.18,368.68,0.017188,,,,,
1157.92,368.94,0.0172,,,,,
1158.66,369.2,0.017212,,,,,
1159.39,369.46,0.017222,,,,,
1160.12,369.72,0.017234,,,,,
1160.83,369.98,0.017246,,,,,
1161.55,370.24,0.017258,,,,,
1162.28,370.5,0.017269,,,,,
1163,370.76,0.01728,,,,,
1163.76,371.02,0.017292,,,,,
1164.5,371.28,0.017304,,,,,
1165.25,371.54,0.017317,,,,,
1165.99,371.8,0.017329,,,,,
1166.74,372.06,0.017341,,,,,
1167.49,372.32,0.017353,,,,,
1168.23,372.58,0.017365,,,,,
1168.98,372.84,0.017377,,,,,
1169.72,373.1,0.01739,,,,,
1170.44,373.36,0.017402,,,,,
1171.14,373.62,0.017413,,,,,
1171.83,373.88,0.017425,,,,,
1172.53,374.14,0.017436,,,,,
1173.22,374.4,0.017448,,,,,
1173.9,374.66,0.017459,,,,,
1174.57,374.92,0.017471,,,,,
1175.26,375.18,0.017482,,,,,
1175.96,375.44,0.017493,,,,,
1176.65,375.7,0.017504,,,,,
1177.35,375.96,0.017515,,,,,
1178.07,376.22,0.017527,,,,,
1178.8,376.48,0.017539,,,,,
1179.53,376.74,0.01755,,,,,
1180.26,377,0.017562,,,,,
1180.98,377.26,0.017574,,,,,
1181.69,377.52,0.017586,,,,,
1182.4,377.78,0.017597,,,,,
1183.11,378.04,0.017608,,,,,
1183.83,378.3,0.01762,,,,,
1184.56,378.56,0.017631,,,,,
1185.28,378.82,0.017643,,,,,
1186.03,379.08,0.017655,,,,,
1186.78,379.34,0.017667,,,,,
1187.54,379.6,0.017679,,,,,
1188.29,379.86,0.017691,,,,,
1189.04,380.12,0.017703,,,,,
1189.77,380.38,0.017716,,,,,
1190.48,380.64,0.017728,,,,,
1191.16,380.9,0.017739,,,,,
1191.87,381.16,0.01775,,,,,
1192.59,381.42,0.017762,,,,,
1193.29,381.68,0.017773,,,,,
1194.02,381.94,0.017783,,,,,
1194.75,382.2,0.017794,,,,,
1195.49,382.46,0.017805,,,,,
1196.23,382.72,0.017817,,,,,
1196.97,382.98,0.017828,,,,,
1197.7,383.24,0.01784,,,,,
1198.42,383.5,0.017852,,,,,
1198.89,383.673,0.01786,,,,,