File: data/16.6mm-102819/ExpDat_sapph16.6mm10282019s.csv
#EXPORTTYPE:           ,DATA ALL
#FILE:                 ,sapph17mm10282019s.ngb-cle
#FORMAT:               ,NETZSCH5
#FTYPE:                ,ANSI
#IDENTITY:             ,sapphire 17
#DECIMAL:              ,POINT
#SEPARATOR:            ,COMMA
#MTYPE:                ,DIL
#INSTRUMENT:           ,NETZSCH DIL 402C
#PROJECT:              ,feldspar
#DATE/TIME:            ,10/28/2019 9:58:07 AM (UTC-5)
#CORR. FILE:           ,
#TEMPCAL:              ,TCALZERO.TMX
#LABORATORY:           ,Mineral Physics
#OPERATOR:             ,PAG
#REMARK:               ,bare, norm start, for bytown and rocks , long stnd, new thermocouple, new pushrod, redo again for check
#SAMPLE:               ,sapph standar
#SAMPLE LENGTH /mm:    ,16.592
#MATERIAL:             ,sapphire stnd
#MEASMODE:             ,Standard Expansion
#PURGE GAS 1:          ,ARGON
#FLOW RATE 1 /(ml/min):,75
#M.RANGE /µm:          ,500
#CORR. CODE:           ,010
#RANGE:                ,20.0°C/3.0(K/min)/1170.0°C
#SEGMENT:              ,S1/1
#SEG. 1:               ,20.0°C/3.0(K/min)/1170.0°C

##Temp./°C,Time/min,dL/Lo
  22.28200,  0.00000,2.0560e-005
  22.32600,  0.26000,2.4596e-005
  22.35900,  0.52000,2.7213e-005
  22.38400,  0.78000,2.9192e-005
  22.40900,  1.04000,3.0779e-005
  22.43400,  1.30000,3.1606e-005
  22.44300,  1.56000,3.2258e-005
  22.44600,  1.82000,3.2648e-005
  22.46500,  2.08000,3.2656e-005
  22.48000,  2.34000,3.3087e-005
  22.48800,  2.60000,3.2941e-005
  22.50100,  2.86000,3.2853e-005
  22.51300,  3.12000,3.3007e-005
  22.52200,  3.38000,3.2672e-005
  22.55000,  3.64000,3.2608e-005
  22.59100,  3.90000,3.1590e-005
  22.68200,  4.16000,3.0305e-005
  22.86800,  4.42000,2.8817e-005
  23.14300,  4.68000,2.6519e-005
  23.52300,  4.94000,2.3797e-005
  24.04600,  5.20000,2.1111e-005
  24.67100,  5.46000,1.8419e-005
  25.41100,  5.72000,1.5828e-005
  26.27300,  5.98000,1.4024e-005
  27.21200,  6.24000,1.2918e-005
  28.24400,  6.50000,1.2663e-005
  29.34200,  6.76000,1.3806e-005
  30.48500,  7.02000,1.6218e-005
  31.66100,  7.28000,1.9581e-005
  32.87200,  7.54000,2.4179e-005
  34.10200,  7.80000,3.0637e-005
  35.35300,  8.06000,3.8404e-005
  36.58500,  8.32000,4.6807e-005
  37.82300,  8.58000,5.5717e-005
  39.06700,  8.84000,6.6098e-005
  40.30700,  9.10000,7.6733e-005
  41.54500,  9.36000,8.7643e-005
  42.79700,  9.62000,9.9380e-005
  44.05000,  9.88000,1.1108e-004
  45.30600, 10.14000,1.2329e-004
  46.59100, 10.40000,1.3598e-004
  47.88400, 10.66000,1.4872e-004
  49.17400, 10.92000,1.6182e-004
  50.48700, 11.18000,1.7494e-004
  51.80600, 11.44000,1.8858e-004
  53.14100, 11.70000,2.0236e-004
  54.50000, 11.96000,2.1680e-004
  55.86200, 12.22000,2.3120e-004
  57.22300, 12.48000,2.4643e-004
  58.58900, 12.74000,2.6131e-004
  59.95400, 13.00000,2.7696e-004
  61.33600, 13.26000,2.9289e-004
  62.70700, 13.52000,3.0894e-004
  64.07900, 13.78000,3.2532e-004
  65.44600, 14.04000,3.4190e-004
  66.83200, 14.30000,3.5903e-004
  68.19800, 14.56000,3.7619e-004
  69.57600, 14.82000,3.9354e-004
  70.93800, 15.08000,4.1098e-004
  72.30900, 15.34000,4.2848e-004
  73.66600, 15.60000,4.4630e-004
  75.02700, 15.86000,4.6412e-004
  76.39600, 16.12000,4.8213e-004
  77.74000, 16.38000,5.0022e-004
  79.09200, 16.64000,5.1830e-004
  80.43800, 16.90000,5.3646e-004
  81.78600, 17.16000,5.5484e-004
  83.14000, 17.42000,5.7325e-004
  84.48400, 17.68000,5.9176e-004
  85.81900, 17.94000,6.1042e-004
  87.16000, 18.20000,6.2901e-004
  88.50000, 18.46000,6.4789e-004
  89.83500, 18.72000,6.6674e-004
  91.15200, 18.98000,6.8546e-004
  92.47900, 19.24000,7.0463e-004
  93.79000, 19.50000,7.2327e-004
  95.10900, 19.76000,7.4227e-004
  96.41300, 20.02000,7.6119e-004
  97.70400, 20.28000,7.8019e-004
  99.02100, 20.54000,7.9948e-004
 100.326, 20.80000,8.1841e-004
 101.621, 21.06000,8.3753e-004
 102.917, 21.32000,8.5677e-004
 104.21, 21.58000,8.7542e-004
 105.503, 21.84000,8.9503e-004
 106.782, 22.10000,9.1373e-004
 108.073, 22.36000,9.3271e-004
 109.357, 22.62000,9.5177e-004
 110.626, 22.88000,9.7088e-004
 111.896, 23.14000,9.8970e-004
 113.179, 23.40000,1.0086e-003
 114.443, 23.66000,1.0275e-003
 115.705, 23.92000,1.0463e-003
 116.973, 24.18000,1.0651e-003
 118.23, 24.44000,1.0841e-003
 119.49, 24.70000,1.1029e-003
 120.749, 24.96000,1.1218e-003
 122.005, 25.22000,1.1404e-003
 123.259, 25.48000,1.1592e-003
 124.496, 25.74000,1.1776e-003
 125.755, 26.00000,1.1964e-003
 126.993, 26.26000,1.2151e-003
 128.25, 26.52000,1.2339e-003
 129.49, 26.78000,1.2527e-003
 130.735, 27.04000,1.2714e-003
 131.974, 27.30000,1.2901e-003
 133.221, 27.56000,1.3087e-003
 134.447, 27.82000,1.3280e-003
 135.678, 28.08000,1.3473e-003
 136.906, 28.34000,1.3662e-003
 138.146, 28.60000,1.3852e-003
 139.366, 28.86000,1.4036e-003
 140.59, 29.12000,1.4223e-003
 141.824, 29.38000,1.4413e-003
 143.044, 29.64000,1.4598e-003
 144.259, 29.90000,1.4784e-003
 145.486, 30.16000,1.4970e-003
 146.7, 30.42000,1.5156e-003
 147.911, 30.68000,1.5338e-003
 149.123, 30.94000,1.5526e-003
 150.337, 31.20000,1.5708e-003
 151.533, 31.46000,1.5889e-003
 152.749, 31.72000,1.6075e-003
 153.939, 31.98000,1.6254e-003
 155.149, 32.24000,1.6440e-003
 156.352, 32.50000,1.6619e-003
 157.559, 32.76000,1.6805e-003
 158.754, 33.02000,1.6988e-003
 159.96, 33.28000,1.7171e-003
 161.153, 33.54000,1.7350e-003
 162.349, 33.80000,1.7531e-003
 163.55, 34.06000,1.7713e-003
 164.728, 34.32000,1.7893e-003
 165.907, 34.58000,1.8074e-003
 167.098, 34.84000,1.8254e-003
 168.281, 35.10000,1.8433e-003
 169.48, 35.36000,1.8616e-003
 170.655, 35.62000,1.8794e-003
 171.829, 35.88000,1.8974e-003
 173.004, 36.14000,1.9155e-003
 174.193, 36.40000,1.9334e-003
 175.363, 36.66000,1.9513e-003
 176.539, 36.92000,1.9691e-003
 177.719, 37.18000,1.9874e-003
 178.896, 37.44000,2.0052e-003
 180.064, 37.70000,2.0231e-003
 181.229, 37.96000,2.0408e-003
 182.4, 38.22000,2.0587e-003
 183.565, 38.48000,2.0766e-003
 184.728, 38.74000,2.0946e-003
 185.886, 39.00000,2.1122e-003
 187.047, 39.26000,2.1301e-003
 188.201, 39.52000,2.1475e-003
 189.366, 39.78000,2.1651e-003
 190.518, 40.04000,2.1831e-003
 191.679, 40.30000,2.2002e-003
 192.835, 40.56000,2.2176e-003
 193.981, 40.82000,2.2355e-003
 195.119, 41.08000,2.2525e-003
 196.272, 41.34000,2.2700e-003
 197.418, 41.60000,2.2874e-003
 198.558, 41.86000,2.3048e-003
 199.695, 42.12000,2.3224e-003
 200.847, 42.38000,2.3400e-003
 201.991, 42.64000,2.3572e-003
 203.127, 42.90000,2.3745e-003
 204.255, 43.16000,2.3920e-003
 205.395, 43.42000,2.4098e-003
 206.537, 43.68000,2.4272e-003
 207.668, 43.94000,2.4451e-003
 208.793, 44.20000,2.4628e-003
 209.907, 44.46000,2.4804e-003
 211.027, 44.72000,2.4982e-003
 212.14, 44.98000,2.5153e-003
 213.239, 45.24000,2.5327e-003
 214.344, 45.50000,2.5503e-003
 215.449, 45.76000,2.5675e-003
 216.562, 46.02000,2.5848e-003
 217.658, 46.28000,2.6018e-003
 218.755, 46.54000,2.6185e-003
 219.863, 46.80000,2.6355e-003
 220.969, 47.06000,2.6520e-003
 222.084, 47.32000,2.6683e-003
 223.206, 47.58000,2.6848e-003
 224.324, 47.84000,2.7011e-003
 225.464, 48.10000,2.7178e-003
 226.596, 48.36000,2.7342e-003
 227.737, 48.62000,2.7505e-003
 228.876, 48.88000,2.7667e-003
 230.026, 49.14000,2.7833e-003
 231.174, 49.40000,2.8001e-003
 232.326, 49.66000,2.8171e-003
 233.469, 49.92000,2.8339e-003
 234.61, 50.18000,2.8510e-003
 235.757, 50.44000,2.8679e-003
 236.903, 50.70000,2.8851e-003
 238.033, 50.96000,2.9020e-003
 239.174, 51.22000,2.9192e-003
 240.291, 51.48000,2.9364e-003
 241.417, 51.74000,2.9531e-003
 242.532, 52.00000,2.9705e-003
 243.652, 52.26000,2.9878e-003
 244.758, 52.52000,3.0047e-003
 245.86, 52.78000,3.0215e-003
 246.968, 53.04000,3.0383e-003
 248.079, 53.30000,3.0554e-003
 249.168, 53.56000,3.0722e-003
 250.265, 53.82000,3.0890e-003
 251.344, 54.08000,3.1056e-003
 252.437, 54.34000,3.1220e-003
 253.522, 54.60000,3.1387e-003
 254.602, 54.86000,3.1556e-003
 255.672, 55.12000,3.1721e-003
 256.746, 55.38000,3.1887e-003
 257.814, 55.64000,3.2050e-003
 258.881, 55.90000,3.2214e-003
 259.952, 56.16000,3.2376e-003
 261.007, 56.42000,3.2540e-003
 262.055, 56.68000,3.2702e-003
 263.107, 56.94000,3.2863e-003
 264.164, 57.20000,3.3027e-003
 265.217, 57.46000,3.3188e-003
 266.273, 57.72000,3.3352e-003
 267.322, 57.98000,3.3512e-003
 268.367, 58.24000,3.3669e-003
 269.415, 58.50000,3.3831e-003
 270.454, 58.76000,3.3994e-003
 271.48, 59.02000,3.4150e-003
 272.523, 59.28000,3.4309e-003
 273.557, 59.54000,3.4471e-003
 274.59, 59.80000,3.4630e-003
 275.62, 60.06000,3.4787e-003
 276.647, 60.32000,3.4942e-003
 277.678, 60.58000,3.5101e-003
 278.699, 60.84000,3.5257e-003
 279.716, 61.10000,3.5412e-003
 280.73, 61.36000,3.5571e-003
 281.761, 61.62000,3.5723e-003
 282.767, 61.88000,3.5879e-003
 283.787, 62.14000,3.6034e-003
 284.806, 62.40000,3.6192e-003
 285.817, 62.66000,3.6351e-003
 286.827, 62.92000,3.6499e-003
 287.846, 63.18000,3.6653e-003
 288.855, 63.44000,3.6807e-003
 289.861, 63.70000,3.6965e-003
 290.863, 63.96000,3.7116e-003
 291.873, 64.22000,3.7270e-003
 292.872, 64.48000,3.7424e-003
 293.875, 64.74000,3.7575e-003
 294.872, 65.00000,3.7725e-003
 295.867, 65.26000,3.7880e-003
 296.856, 65.52000,3.8033e-003
 297.852, 65.78000,3.8183e-003
 298.846, 66.04000,3.8335e-003
 299.849, 66.30000,3.8486e-003
 300.841, 66.56000,3.8640e-003
 301.831, 66.82000,3.8788e-003
 302.826, 67.08000,3.8938e-003
 303.812, 67.34000,3.9090e-003
 304.803, 67.60000,3.9246e-003
 305.795, 67.86000,3.9391e-003
 306.776, 68.12000,3.9541e-003
 307.758, 68.38000,3.9694e-003
 308.74, 68.64000,3.9838e-003
 309.724, 68.90000,3.9990e-003
 310.707, 69.16000,4.0141e-003
 311.682, 69.42000,4.0289e-003
 312.666, 69.68000,4.0441e-003
 313.639, 69.94000,4.0585e-003
 314.611, 70.20000,4.0735e-003
 315.594, 70.46000,4.0882e-003
 316.563, 70.72000,4.1035e-003
 317.525, 70.98000,4.1174e-003
 318.504, 71.24000,4.1325e-003
 319.463, 71.50000,4.1474e-003
 320.432, 71.76000,4.1618e-003
 321.405, 72.02000,4.1763e-003
 322.372, 72.28000,4.1913e-003
 323.343, 72.54000,4.2062e-003
 324.31, 72.80000,4.2207e-003
 325.274, 73.06000,4.2353e-003
 326.235, 73.32000,4.2503e-003
 327.194, 73.58000,4.2647e-003
 328.155, 73.84000,4.2792e-003
 329.115, 74.10000,4.2941e-003
 330.066, 74.36000,4.3083e-003
 331.018, 74.62000,4.3230e-003
 331.971, 74.88000,4.3378e-003
 332.921, 75.14000,4.3519e-003
 333.886, 75.40000,4.3665e-003
 334.832, 75.66000,4.3805e-003
 335.78, 75.92000,4.3951e-003
 336.738, 76.18000,4.4098e-003
 337.688, 76.44000,4.4242e-003
 338.631, 76.70000,4.4384e-003
 339.581, 76.96000,4.4524e-003
 340.529, 77.22000,4.4670e-003
 341.472, 77.48000,4.4811e-003
 342.415, 77.74000,4.4957e-003
 343.36, 78.00000,4.5095e-003
 344.3, 78.26000,4.5240e-003
 345.243, 78.52000,4.5387e-003
 346.186, 78.78000,4.5530e-003
 347.118, 79.04000,4.5670e-003
 348.062, 79.30000,4.5817e-003
 348.992, 79.56000,4.5956e-003
 349.918, 79.82000,4.6097e-003
 350.86, 80.08000,4.6242e-003
 351.8, 80.34000,4.6383e-003
 352.73, 80.60000,4.6525e-003
 353.652, 80.86000,4.6664e-003
 354.585, 81.12000,4.6808e-003
 355.513, 81.38000,4.6944e-003
 356.445, 81.64000,4.7088e-003
 357.371, 81.90000,4.7225e-003
 358.3, 82.16000,4.7369e-003
 359.226, 82.42000,4.7512e-003
 360.151, 82.68000,4.7651e-003
 361.071, 82.94000,4.7792e-003
 361.992, 83.20000,4.7928e-003
 362.919, 83.46000,4.8071e-003
 363.839, 83.72000,4.8206e-003
 364.757, 83.98000,4.8346e-003
 365.67, 84.24000,4.8487e-003
 366.589, 84.50000,4.8628e-003
 367.513, 84.76000,4.8767e-003
 368.434, 85.02000,4.8902e-003
 369.349, 85.28000,4.9041e-003
 370.257, 85.54000,4.9184e-003
 371.172, 85.80000,4.9318e-003
 372.073, 86.06000,4.9459e-003
 372.985, 86.32000,4.9597e-003
 373.895, 86.58000,4.9735e-003
 374.802, 86.84000,4.9870e-003
 375.71, 87.10000,5.0007e-003
 376.615, 87.36000,5.0148e-003
 377.523, 87.62000,5.0287e-003
 378.425, 87.88000,5.0417e-003
 379.323, 88.14000,5.0556e-003
 380.223, 88.40000,5.0696e-003
 381.116, 88.66000,5.0829e-003
 382.016, 88.92000,5.0968e-003
 382.917, 89.18000,5.1104e-003
 383.812, 89.44000,5.1243e-003
 384.716, 89.70000,5.1375e-003
 385.617, 89.96000,5.1513e-003
 386.519, 90.22000,5.1655e-003
 387.413, 90.48000,5.1788e-003
 388.313, 90.74000,5.1929e-003
 389.204, 91.00000,5.2060e-003
 390.103, 91.26000,5.2191e-003
 390.998, 91.52000,5.2329e-003
 391.89, 91.78000,5.2470e-003
 392.781, 92.04000,5.2603e-003
 393.667, 92.30000,5.2741e-003
 394.549, 92.56000,5.2869e-003
 395.437, 92.82000,5.3001e-003
 396.326, 93.08000,5.3141e-003
 397.21, 93.34000,5.3270e-003
 398.095, 93.60000,5.3410e-003
 398.972, 93.86000,5.3540e-003
 399.853, 94.12000,5.3679e-003
 400.734, 94.38000,5.3810e-003
 401.611, 94.64000,5.3946e-003
 402.488, 94.90000,5.4077e-003
 403.38, 95.16000,5.4209e-003
 404.26, 95.42000,5.4343e-003
 405.127, 95.68000,5.4476e-003
 405.998, 95.94000,5.4608e-003
 406.877, 96.20000,5.4739e-003
 407.751, 96.46000,5.4876e-003
 408.626, 96.72000,5.5004e-003
 409.499, 96.98000,5.5143e-003
 410.372, 97.24000,5.5270e-003
 411.242, 97.50000,5.5404e-003
 412.109, 97.76000,5.5539e-003
 412.975, 98.02000,5.5668e-003
 413.849, 98.28000,5.5801e-003
 414.722, 98.54000,5.5933e-003
 415.581, 98.80000,5.6066e-003
 416.452, 99.06000,5.6193e-003
 417.311, 99.32000,5.6326e-003
 418.177, 99.58000,5.6454e-003
 419.044, 99.84000,5.6590e-003
 419.902,100.1,5.6716e-003
 420.771,100.36,5.6848e-003
 421.632,100.62,5.6975e-003
 422.489,100.88,5.7112e-003
 423.346,101.14,5.7238e-003
 424.206,101.4,5.7370e-003
 425.058,101.66,5.7500e-003
 425.908,101.92,5.7630e-003
 426.767,102.18,5.7758e-003
 427.621,102.44,5.7886e-003
 428.474,102.7,5.8020e-003
 429.331,102.96,5.8149e-003
 430.191,103.22,5.8281e-003
 431.05,103.48,5.8412e-003
 431.906,103.74,5.8539e-003
 432.754,104,5.8672e-003
 433.602,104.26,5.8802e-003
 434.454,104.52,5.8929e-003
 435.299,104.78,5.9062e-003
 436.152,105.04,5.9191e-003
 436.989,105.3,5.9318e-003
 437.838,105.56,5.9451e-003
 438.678,105.82,5.9577e-003
 439.529,106.08,5.9715e-003
 440.377,106.34,5.9845e-003
 441.218,106.6,5.9973e-003
 442.048,106.86,6.0108e-003
 442.887,107.12,6.0238e-003
 443.723,107.38,6.0375e-003
 444.545,107.64,6.0502e-003
 445.37,107.9,6.0640e-003
 446.193,108.16,6.0767e-003
 447.022,108.42,6.0901e-003
 447.847,108.68,6.1025e-003
 448.667,108.94,6.1156e-003
 449.492,109.2,6.1277e-003
 450.318,109.46,6.1402e-003
 451.152,109.72,6.1522e-003
 452.007,109.98,6.1652e-003
 452.857,110.24,6.1771e-003
 453.722,110.5,6.1898e-003
 454.587,110.76,6.2018e-003
 455.456,111.02,6.2148e-003
 456.32,111.28,6.2273e-003
 457.189,111.54,6.2405e-003
 458.05,111.8,6.2527e-003
 458.919,112.06,6.2659e-003
 459.773,112.32,6.2794e-003
 460.632,112.58,6.2922e-003
 461.498,112.84,6.3052e-003
 462.342,113.1,6.3177e-003
 463.203,113.36,6.3308e-003
 464.054,113.62,6.3442e-003
 464.891,113.88,6.3565e-003
 465.736,114.14,6.3691e-003
 466.59,114.4,6.3823e-003
 467.429,114.66,6.3957e-003
 468.268,114.92,6.4079e-003
 469.109,115.18,6.4201e-003
 469.938,115.44,6.4334e-003
 470.778,115.7,6.4461e-003
 471.605,115.96,6.4587e-003
 472.424,116.22,6.4719e-003
 473.256,116.48,6.4842e-003
 474.078,116.74,6.4972e-003
 474.9,117,6.5097e-003
 475.723,117.26,6.5217e-003
 476.547,117.52,6.5349e-003
 477.377,117.78,6.5470e-003
 478.195,118.04,6.5599e-003
 479.01,118.3,6.5785e-003
 479.827,118.56,6.5902e-003
 480.647,118.82,6.6023e-003
 481.454,119.08,6.6142e-003
 482.264,119.34,6.6264e-003
 483.076,119.6,6.6387e-003
 483.884,119.86,6.6506e-003
 484.695,120.12,6.6627e-003
 485.498,120.38,6.6752e-003
 486.307,120.64,6.6869e-003
 487.114,120.9,6.6989e-003
 487.91,121.16,6.7112e-003
 488.712,121.42,6.7230e-003
 489.516,121.68,6.7348e-003
 490.318,121.94,6.7472e-003
 491.114,122.2,6.7595e-003
 491.912,122.46,6.7714e-003
 492.712,122.72,6.7842e-003
 493.515,122.98,6.7963e-003
 494.315,123.24,6.8082e-003
 495.11,123.5,6.8205e-003
 495.913,123.76,6.8325e-003
 496.706,124.02,6.8452e-003
 497.515,124.28,6.8571e-003
 498.301,124.54,6.8697e-003
 499.09,124.8,6.8813e-003
 499.88,125.06,6.8934e-003
 500.667,125.32,6.9054e-003
 501.456,125.58,6.9172e-003
 502.249,125.84,6.9296e-003
 503.042,126.1,6.9412e-003
 503.83,126.36,6.9531e-003
 504.622,126.62,6.9654e-003
 505.405,126.88,6.9770e-003
 506.198,127.14,6.9894e-003
 506.997,127.4,7.0022e-003
 507.781,127.66,7.0135e-003
 508.57,127.92,7.0252e-003
 509.363,128.18,7.0370e-003
 510.156,128.44,7.0496e-003
 510.931,128.7,7.0612e-003
 511.716,128.96,7.0730e-003
 512.498,129.22,7.0856e-003
 513.287,129.48,7.0974e-003
 514.068,129.74,7.1099e-003
 514.843,130,7.1220e-003
 515.633,130.26,7.1337e-003
 516.402,130.52,7.1464e-003
 517.171,130.78,7.1584e-003
 517.939,131.04,7.1703e-003
 518.709,131.3,7.1832e-003
 519.475,131.56,7.1950e-003
 520.24,131.82,7.2074e-003
 520.995,132.08,7.2188e-003
 521.758,132.34,7.2316e-003
 522.517,132.6,7.2428e-003
 523.298,132.86,7.2542e-003
 524.068,133.12,7.2663e-003
 524.847,133.38,7.2773e-003
 525.628,133.64,7.2880e-003
 526.421,133.9,7.2992e-003
 527.227,134.16,7.3111e-003
 528.021,134.42,7.3230e-003
 528.831,134.68,7.3344e-003
 529.64,134.94,7.3463e-003
 530.435,135.2,7.3579e-003
 531.248,135.46,7.3704e-003
 532.046,135.72,7.3825e-003
 532.868,135.98,7.3942e-003
 533.672,136.24,7.4068e-003
 534.465,136.5,7.4185e-003
 535.26,136.76,7.4311e-003
 536.052,137.02,7.4427e-003
 536.838,137.28,7.4543e-003
 537.629,137.54,7.4669e-003
 538.419,137.8,7.4787e-003
 539.208,138.06,7.4910e-003
 539.993,138.32,7.5023e-003
 540.777,138.58,7.5137e-003
 541.56,138.84,7.5261e-003
 542.334,139.1,7.5377e-003
 543.111,139.36,7.5500e-003
 543.889,139.62,7.5619e-003
 544.664,139.88,7.5731e-003
 545.446,140.14,7.5852e-003
 546.218,140.4,7.5978e-003
 546.988,140.66,7.6087e-003
 547.751,140.92,7.6200e-003
 548.524,141.18,7.6312e-003
 549.3,141.44,7.6440e-003
 550.069,141.7,7.6549e-003
 550.839,141.96,7.6661e-003
 551.615,142.22,7.6781e-003
 552.38,142.48,7.6894e-003
 553.149,142.74,7.7009e-003
 553.904,143,7.7131e-003
 554.661,143.26,7.7251e-003
 555.422,143.52,7.7362e-003
 556.173,143.78,7.7483e-003
 556.938,144.04,7.7593e-003
 557.708,144.3,7.7701e-003
 558.472,144.56,7.7813e-003
 559.239,144.82,7.7929e-003
 559.999,145.08,7.8038e-003
 560.762,145.34,7.8160e-003
 561.52,145.6,7.8270e-003
 562.278,145.86,7.8387e-003
 563.033,146.12,7.8497e-003
 563.797,146.38,7.8614e-003
 564.547,146.64,7.8723e-003
 565.3,146.9,7.8828e-003
 566.049,147.16,7.8950e-003
 566.804,147.42,7.9057e-003
 567.551,147.68,7.9171e-003
 568.306,147.94,7.9278e-003
 569.061,148.2,7.9386e-003
 569.807,148.46,7.9502e-003
 570.566,148.72,7.9613e-003
 571.316,148.98,7.9715e-003
 572.071,149.24,7.9836e-003
 572.831,149.5,7.9943e-003
 573.586,149.76,8.0050e-003
 574.338,150.02,8.0166e-003
 575.085,150.28,8.0281e-003
 575.834,150.54,8.0389e-003
 576.576,150.8,8.0493e-003
 577.334,151.06,8.0604e-003
 578.085,151.32,8.0723e-003
 578.831,151.58,8.0829e-003
 579.581,151.84,8.0947e-003
 580.327,152.1,8.1055e-003
 581.076,152.36,8.1172e-003
 581.825,152.62,8.1279e-003
 582.571,152.88,8.1394e-003
 583.321,153.14,8.1500e-003
 584.07,153.4,8.1609e-003
 584.824,153.66,8.1726e-003
 585.567,153.92,8.1834e-003
 586.317,154.18,8.1941e-003
 587.059,154.44,8.2057e-003
 587.801,154.7,8.2177e-003
 588.543,154.96,8.2285e-003
 589.278,155.22,8.2393e-003
 590.026,155.48,8.2499e-003
 590.768,155.74,8.2620e-003
 591.51,156,8.2728e-003
 592.251,156.26,8.2844e-003
 593.002,156.52,8.2953e-003
 593.754,156.78,8.3058e-003
 594.495,157.04,8.3173e-003
 595.239,157.3,8.3283e-003
 595.977,157.56,8.3400e-003
 596.732,157.82,8.3508e-003
 597.472,158.08,8.3617e-003
 598.213,158.34,8.3733e-003
 598.95,158.6,8.3843e-003
 599.69,158.86,8.3958e-003
 600.429,159.12,8.4066e-003
 601.164,159.38,8.4187e-003
 601.898,159.64,8.4295e-003
 602.644,159.9,8.4402e-003
 603.374,160.16,8.4508e-003
 604.11,160.42,8.4626e-003
 604.845,160.68,8.4733e-003
 605.581,160.94,8.4839e-003
 606.313,161.2,8.4952e-003
 607.049,161.46,8.5070e-003
 607.797,161.72,8.5179e-003
 608.538,161.98,8.5296e-003
 609.276,162.24,8.5407e-003
 610.005,162.5,8.5512e-003
 610.742,162.76,8.5619e-003
 611.483,163.02,8.5737e-003
 612.219,163.28,8.5851e-003
 612.954,163.54,8.5960e-003
 613.682,163.8,8.6076e-003
 614.412,164.06,8.6184e-003
 615.14,164.32,8.6302e-003
 615.876,164.58,8.6413e-003
 616.596,164.84,8.6517e-003
 617.332,165.1,8.6626e-003
 618.066,165.36,8.6744e-003
 618.797,165.62,8.6857e-003
 619.528,165.88,8.6969e-003
 620.247,166.14,8.7090e-003
 620.971,166.4,8.7197e-003
 621.692,166.66,8.7309e-003
 622.41,166.92,8.7422e-003
 623.136,167.18,8.7544e-003
 623.841,167.44,8.7655e-003
 624.553,167.7,8.7777e-003
 625.261,167.96,8.7887e-003
 625.962,168.22,8.7995e-003
 626.665,168.48,8.8101e-003
 627.375,168.74,8.8215e-003
 628.096,169,8.8329e-003
 628.811,169.26,8.8433e-003
 629.543,169.52,8.8549e-003
 630.274,169.78,8.8650e-003
 631.009,170.04,8.8754e-003
 631.752,170.3,8.8867e-003
 632.502,170.56,8.8985e-003
 633.251,170.82,8.9093e-003
 634.01,171.08,8.9211e-003
 634.762,171.34,8.9320e-003
 635.51,171.6,8.9438e-003
 636.254,171.86,8.9551e-003
 637.003,172.12,8.9668e-003
 637.74,172.38,8.9784e-003
 638.477,172.64,8.9894e-003
 639.215,172.9,9.0009e-003
 639.953,173.16,9.0125e-003
 640.684,173.42,9.0238e-003
 641.418,173.68,9.0354e-003
 642.166,173.94,9.0474e-003
 642.892,174.2,9.0590e-003
 643.624,174.46,9.0697e-003
 644.364,174.72,9.0813e-003
 645.1,174.98,9.0920e-003
 645.834,175.24,9.1038e-003
 646.557,175.5,9.1145e-003
 647.292,175.76,9.1259e-003
 648.014,176.02,9.1368e-003
 648.739,176.28,9.1480e-003
 649.455,176.54,9.1592e-003
 650.176,176.8,9.1704e-003
 650.905,177.06,9.1818e-003
 651.626,177.32,9.1929e-003
 652.338,177.58,9.2040e-003
 653.049,177.84,9.2147e-003
 653.768,178.1,9.2264e-003
 654.481,178.36,9.2369e-003
 655.2,178.62,9.2484e-003
 655.919,178.88,9.2589e-003
 656.636,179.14,9.2698e-003
 657.348,179.4,9.2811e-003
 658.069,179.66,9.2924e-003
 658.774,179.92,9.3032e-003
 659.489,180.18,9.3143e-003
 660.2,180.44,9.3258e-003
 660.913,180.7,9.3371e-003
 661.623,180.96,9.3480e-003
 662.339,181.22,9.3587e-003
 663.046,181.48,9.3691e-003
 663.754,181.74,9.3801e-003
 664.469,182,9.3916e-003
 665.172,182.26,9.4024e-003
 665.879,182.52,9.4135e-003
 666.596,182.78,9.4245e-003
 667.307,183.04,9.4354e-003
 668.015,183.3,9.4464e-003
 668.727,183.56,9.4576e-003
 669.437,183.82,9.4685e-003
 670.145,184.08,9.4795e-003
 670.86,184.34,9.4904e-003
 671.562,184.6,9.5014e-003
 672.27,184.86,9.5124e-003
 672.967,185.12,9.5237e-003
 673.669,185.38,9.5343e-003
 674.368,185.64,9.5447e-003
 675.063,185.9,9.5562e-003
 675.768,186.16,9.5668e-003
 676.467,186.42,9.5774e-003
 677.16,186.68,9.5886e-003
 677.861,186.94,9.5987e-003
 678.556,187.2,9.6101e-003
 679.265,187.46,9.6206e-003
 679.965,187.72,9.6317e-003
 680.663,187.98,9.6423e-003
 681.37,188.24,9.6531e-003
 682.077,188.5,9.6643e-003
 682.777,188.76,9.6749e-003
 683.478,189.02,9.6857e-003
 684.171,189.28,9.6966e-003
 684.87,189.54,9.7071e-003
 685.568,189.8,9.7179e-003
 686.263,190.06,9.7287e-003
 686.953,190.32,9.7395e-003
 687.642,190.58,9.7502e-003
 688.338,190.84,9.7610e-003
 689.029,191.1,9.7722e-003
 689.722,191.36,9.7829e-003
 690.407,191.62,9.7933e-003
 691.095,191.88,9.8036e-003
 691.783,192.14,9.8145e-003
 692.473,192.4,9.8250e-003
 693.162,192.66,9.8356e-003
 693.844,192.92,9.8461e-003
 694.532,193.18,9.8567e-003
 695.215,193.44,9.8673e-003
 695.896,193.7,9.8779e-003
 696.57,193.96,9.8884e-003
 697.257,194.22,9.8991e-003
 697.937,194.48,9.9102e-003
 698.622,194.74,9.9203e-003
 699.307,195,9.9305e-003
 699.982,195.26,9.9415e-003
 700.668,195.52,9.9519e-003
 701.355,195.78,9.9621e-003
 702.036,196.04,9.9732e-003
 702.722,196.3,9.9838e-003
 703.397,196.56,9.9942e-003
 704.075,196.82,1.0005e-002
 704.755,197.08,1.0015e-002
 705.424,197.34,1.0026e-002
 706.094,197.6,1.0037e-002
 706.761,197.86,1.0047e-002
 707.43,198.12,1.0058e-002
 708.089,198.38,1.0069e-002
 708.751,198.64,1.0079e-002
 709.414,198.9,1.0090e-002
 710.07,199.16,1.0100e-002
 710.732,199.42,1.0110e-002
 711.401,199.68,1.0120e-002
 712.074,199.94,1.0130e-002
 712.752,200.2,1.0141e-002
 713.437,200.46,1.0150e-002
 714.126,200.72,1.0160e-002
 714.814,200.98,1.0170e-002
 715.516,201.24,1.0181e-002
 716.211,201.5,1.0191e-002
 716.917,201.76,1.0202e-002
 717.621,202.02,1.0212e-002
 718.321,202.28,1.0222e-002
 719.025,202.54,1.0233e-002
 719.723,202.8,1.0244e-002
 720.433,203.06,1.0254e-002
 721.136,203.32,1.0265e-002
 721.838,203.58,1.0275e-002
 722.537,203.84,1.0286e-002
 723.238,204.1,1.0296e-002
 723.932,204.36,1.0307e-002
 724.628,204.62,1.0318e-002
 725.327,204.88,1.0328e-002
 726.029,205.14,1.0338e-002
 726.713,205.4,1.0349e-002
 727.42,205.66,1.0359e-002
 728.115,205.92,1.0370e-002
 728.808,206.18,1.0380e-002
 729.498,206.44,1.0390e-002
 730.191,206.7,1.0401e-002
 730.881,206.96,1.0411e-002
 731.569,207.22,1.0421e-002
 732.264,207.48,1.0432e-002
 732.955,207.74,1.0442e-002
 733.637,208,1.0452e-002
 734.321,208.26,1.0462e-002
 735.001,208.52,1.0472e-002
 735.694,208.78,1.0482e-002
 736.382,209.04,1.0493e-002
 737.061,209.3,1.0503e-002
 737.746,209.56,1.0513e-002
 738.431,209.82,1.0523e-002
 739.12,210.08,1.0534e-002
 739.804,210.34,1.0545e-002
 740.489,210.6,1.0555e-002
 741.168,210.86,1.0565e-002
 741.847,211.12,1.0575e-002
 742.531,211.38,1.0585e-002
 743.227,211.64,1.0596e-002
 743.903,211.9,1.0606e-002
 744.586,212.16,1.0616e-002
 745.265,212.42,1.0626e-002
 745.952,212.68,1.0637e-002
 746.633,212.94,1.0647e-002
 747.309,213.2,1.0657e-002
 747.989,213.46,1.0667e-002
 748.663,213.72,1.0678e-002
 749.343,213.98,1.0688e-002
 750.016,214.24,1.0697e-002
 750.697,214.5,1.0707e-002
 751.372,214.76,1.0717e-002
 752.052,215.02,1.0727e-002
 752.727,215.28,1.0737e-002
 753.397,215.54,1.0747e-002
 754.077,215.8,1.0758e-002
 754.753,216.06,1.0767e-002
 755.427,216.32,1.0777e-002
 756.109,216.58,1.0788e-002
 756.787,216.84,1.0797e-002
 757.467,217.1,1.0807e-002
 758.134,217.36,1.0817e-002
 758.826,217.62,1.0827e-002
 759.498,217.88,1.0837e-002
 760.169,218.14,1.0847e-002
 760.845,218.4,1.0857e-002
 761.515,218.66,1.0868e-002
 762.176,218.92,1.0878e-002
 762.842,219.18,1.0888e-002
 763.513,219.44,1.0898e-002
 764.167,219.7,1.0908e-002
 764.816,219.96,1.0918e-002
 765.468,220.22,1.0928e-002
 766.113,220.48,1.0938e-002
 766.762,220.74,1.0948e-002
 767.421,221,1.0957e-002
 768.075,221.26,1.0967e-002
 768.739,221.52,1.0977e-002
 769.409,221.78,1.0986e-002
 770.084,222.04,1.0996e-002
 770.773,222.3,1.1005e-002
 771.461,222.56,1.1015e-002
 772.152,222.82,1.1024e-002
 772.842,223.08,1.1034e-002
 773.529,223.34,1.1044e-002
 774.219,223.6,1.1054e-002
 774.906,223.86,1.1064e-002
 775.609,224.12,1.1074e-002
 776.291,224.38,1.1084e-002
 776.983,224.64,1.1094e-002
 777.668,224.9,1.1104e-002
 778.362,225.16,1.1114e-002
 779.049,225.42,1.1124e-002
 779.736,225.68,1.1134e-002
 780.423,225.94,1.1144e-002
 781.114,226.2,1.1154e-002
 781.795,226.46,1.1163e-002
 782.481,226.72,1.1173e-002
 783.159,226.98,1.1183e-002
 783.834,227.24,1.1193e-002
 784.509,227.5,1.1203e-002
 785.183,227.76,1.1213e-002
 785.857,228.02,1.1223e-002
 786.524,228.28,1.1233e-002
 787.202,228.54,1.1243e-002
 787.866,228.8,1.1253e-002
 788.526,229.06,1.1263e-002
 789.183,229.32,1.1273e-002
 789.836,229.58,1.1283e-002
 790.48,229.84,1.1292e-002
 791.122,230.1,1.1302e-002
 791.77,230.36,1.1311e-002
 792.416,230.62,1.1321e-002
 793.058,230.88,1.1331e-002
 793.706,231.14,1.1341e-002
 794.339,231.4,1.1350e-002
 794.976,231.66,1.1360e-002
 795.615,231.92,1.1369e-002
 796.242,232.18,1.1379e-002
 796.88,232.44,1.1389e-002
 797.504,232.7,1.1398e-002
 798.124,232.96,1.1408e-002
 798.744,233.22,1.1418e-002
 799.348,233.48,1.1427e-002
 799.974,233.74,1.1437e-002
 800.601,234,1.1446e-002
 801.235,234.26,1.1456e-002
 801.872,234.52,1.1466e-002
 802.508,234.78,1.1476e-002
 803.158,235.04,1.1485e-002
 803.799,235.3,1.1495e-002
 804.436,235.56,1.1505e-002
 805.086,235.82,1.1515e-002
 805.726,236.08,1.1525e-002
 806.365,236.34,1.1535e-002
 807.002,236.6,1.1544e-002
 807.64,236.86,1.1555e-002
 808.276,237.12,1.1564e-002
 808.917,237.38,1.1574e-002
 809.543,237.64,1.1584e-002
 810.177,237.9,1.1594e-002
 810.804,238.16,1.1604e-002
 811.42,238.42,1.1614e-002
 812.042,238.68,1.1624e-002
 812.659,238.94,1.1633e-002
 813.274,239.2,1.1643e-002
 813.892,239.46,1.1653e-002
 814.51,239.72,1.1662e-002
 815.127,239.98,1.1672e-002
 815.747,240.24,1.1682e-002
 816.38,240.5,1.1691e-002
 817.015,240.76,1.1700e-002
 817.653,241.02,1.1710e-002
 818.291,241.28,1.1720e-002
 818.944,241.54,1.1730e-002
 819.585,241.8,1.1739e-002
 820.233,242.06,1.1749e-002
 820.881,242.32,1.1759e-002
 821.53,242.58,1.1769e-002
 822.181,242.84,1.1780e-002
 822.832,243.1,1.1790e-002
 823.48,243.36,1.1800e-002
 824.131,243.62,1.1810e-002
 824.781,243.88,1.1820e-002
 825.44,244.14,1.1830e-002
 826.094,244.4,1.1841e-002
 826.75,244.66,1.1852e-002
 827.395,244.92,1.1862e-002
 828.036,245.18,1.1872e-002
 828.673,245.44,1.1883e-002
 829.31,245.7,1.1893e-002
 829.947,245.96,1.1903e-002
 830.586,246.22,1.1914e-002
 831.234,246.48,1.1924e-002
 831.888,246.74,1.1934e-002
 832.548,247,1.1943e-002
 833.215,247.26,1.1954e-002
 833.873,247.52,1.1964e-002
 834.539,247.78,1.1975e-002
 835.21,248.04,1.1985e-002
 835.88,248.3,1.1995e-002
 836.561,248.56,1.2005e-002
 837.236,248.82,1.2015e-002
 837.914,249.08,1.2028e-002
 838.594,249.34,1.2038e-002
 839.271,249.6,1.2048e-002
 839.967,249.86,1.2062e-002
 840.648,250.12,1.2073e-002
 841.329,250.38,1.2083e-002
 842.016,250.64,1.2093e-002
 842.701,250.9,1.2103e-002
 843.395,251.16,1.2114e-002
 844.087,251.42,1.2124e-002
 844.783,251.68,1.2135e-002
 845.478,251.94,1.2146e-002
 846.172,252.2,1.2157e-002
 846.854,252.46,1.2167e-002
 847.533,252.72,1.2178e-002
 848.227,252.98,1.2189e-002
 848.896,253.24,1.2199e-002
 849.58,253.5,1.2211e-002
 850.271,253.76,1.2221e-002
 850.954,254.02,1.2231e-002
 851.646,254.28,1.2242e-002
 852.334,254.54,1.2253e-002
 853.026,254.8,1.2263e-002
 853.715,255.06,1.2274e-002
 854.404,255.32,1.2285e-002
 855.098,255.58,1.2296e-002
 855.78,255.84,1.2307e-002
 856.463,256.1,1.2317e-002
 857.147,256.36,1.2327e-002
 857.831,256.62,1.2338e-002
 858.513,256.88,1.2349e-002
 859.201,257.14,1.2360e-002
 859.889,257.4,1.2370e-002
 860.565,257.66,1.2382e-002
 861.244,257.92,1.2392e-002
 861.92,258.18,1.2403e-002
 862.597,258.44,1.2414e-002
 863.267,258.7,1.2424e-002
 863.937,258.96,1.2435e-002
 864.611,259.22,1.2447e-002
 865.282,259.48,1.2458e-002
 865.941,259.74,1.2469e-002
 866.59,260,1.2479e-002
 867.246,260.26,1.2490e-002
 867.894,260.52,1.2500e-002
 868.553,260.78,1.2511e-002
 869.213,261.04,1.2522e-002
 869.875,261.3,1.2532e-002
 870.536,261.56,1.2543e-002
 871.22,261.82,1.2553e-002
 871.899,262.08,1.2563e-002
 872.592,262.34,1.2575e-002
 873.265,262.6,1.2585e-002
 873.947,262.86,1.2596e-002
 874.625,263.12,1.2606e-002
 875.308,263.38,1.2618e-002
 875.992,263.64,1.2628e-002
 876.674,263.9,1.2639e-002
 877.345,264.16,1.2649e-002
 878.029,264.42,1.2661e-002
 878.709,264.68,1.2671e-002
 879.385,264.94,1.2682e-002
 880.059,265.2,1.2693e-002
 880.729,265.46,1.2704e-002
 881.402,265.72,1.2714e-002
 882.07,265.98,1.2726e-002
 882.729,266.24,1.2736e-002
 883.388,266.5,1.2747e-002
 884.033,266.76,1.2758e-002
 884.677,267.02,1.2768e-002
 885.321,267.28,1.2779e-002
 885.956,267.54,1.2789e-002
 886.598,267.8,1.2799e-002
 887.243,268.06,1.2810e-002
 887.892,268.32,1.2820e-002
 888.545,268.58,1.2830e-002
 889.203,268.84,1.2841e-002
 889.869,269.1,1.2851e-002
 890.539,269.36,1.2862e-002
 891.213,269.62,1.2873e-002
 891.886,269.88,1.2883e-002
 892.559,270.14,1.2894e-002
 893.209,270.4,1.2906e-002
 893.85,270.66,1.2916e-002
 894.503,270.92,1.2927e-002
 895.155,271.18,1.2937e-002
 895.823,271.44,1.2947e-002
 896.492,271.7,1.2959e-002
 897.161,271.96,1.2969e-002
 897.82,272.22,1.2980e-002
 898.482,272.48,1.2990e-002
 899.126,272.74,1.3002e-002
 899.779,273,1.3012e-002
 900.425,273.26,1.3023e-002
 901.071,273.52,1.3033e-002
 901.715,273.78,1.3044e-002
 902.359,274.04,1.3054e-002
 902.993,274.3,1.3065e-002
 903.639,274.56,1.3075e-002
 904.298,274.82,1.3085e-002
 904.955,275.08,1.3097e-002
 905.609,275.34,1.3107e-002
 906.265,275.6,1.3118e-002
 906.906,275.86,1.3128e-002
 907.543,276.12,1.3140e-002
 908.189,276.38,1.3150e-002
 908.836,276.64,1.3161e-002
 909.476,276.9,1.3171e-002
 910.109,277.16,1.3182e-002
 910.746,277.42,1.3192e-002
 911.372,277.68,1.3202e-002
 912.001,277.94,1.3213e-002
 912.625,278.2,1.3223e-002
 913.245,278.46,1.3234e-002
 913.865,278.72,1.3243e-002
 914.484,278.98,1.3253e-002
 915.086,279.24,1.3264e-002
 915.688,279.5,1.3274e-002
 916.267,279.76,1.3284e-002
 916.826,280.02,1.3294e-002
 917.337,280.28,1.3304e-002
 917.811,280.54,1.3313e-002
 918.269,280.8,1.3323e-002
 918.713,281.06,1.3331e-002
 919.148,281.32,1.3340e-002
 919.616,281.58,1.3347e-002
 920.125,281.84,1.3355e-002
 920.675,282.1,1.3362e-002
 921.248,282.36,1.3370e-002
 921.841,282.62,1.3380e-002
 922.447,282.88,1.3388e-002
 923.081,283.14,1.3398e-002
 923.724,283.4,1.3408e-002
 924.386,283.66,1.3418e-002
 925.053,283.92,1.3429e-002
 925.727,284.18,1.3439e-002
 926.398,284.44,1.3450e-002
 927.058,284.7,1.3461e-002
 927.721,284.96,1.3472e-002
 928.38,285.22,1.3483e-002
 929.034,285.48,1.3494e-002
 929.697,285.74,1.3504e-002
 930.37,286,1.3514e-002
 931.046,286.26,1.3525e-002
 931.727,286.52,1.3536e-002
 932.403,286.78,1.3546e-002
 933.073,287.04,1.3558e-002
 933.734,287.3,1.3569e-002
 934.376,287.56,1.3580e-002
 935.031,287.82,1.3590e-002
 935.673,288.08,1.3601e-002
 936.338,288.34,1.3612e-002
 937.003,288.6,1.3621e-002
 937.672,288.86,1.3633e-002
 938.357,289.12,1.3643e-002
 939.043,289.38,1.3654e-002
 939.711,289.64,1.3665e-002
 940.394,289.9,1.3676e-002
 941.063,290.16,1.3686e-002
 941.742,290.42,1.3698e-002
 942.411,290.68,1.3708e-002
 943.08,290.94,1.3719e-002
 943.74,291.2,1.3730e-002
 944.41,291.46,1.3741e-002
 945.082,291.72,1.3752e-002
 945.749,291.98,1.3762e-002
 946.42,292.24,1.3772e-002
 947.095,292.5,1.3784e-002
 947.774,292.76,1.3794e-002
 948.447,293.02,1.3806e-002
 949.134,293.28,1.3816e-002
 949.822,293.54,1.3827e-002
 950.506,293.8,1.3838e-002
 951.196,294.06,1.3849e-002
 951.894,294.32,1.3860e-002
 952.58,294.58,1.3872e-002
 953.257,294.84,1.3883e-002
 953.928,295.1,1.3893e-002
 954.599,295.36,1.3904e-002
 955.274,295.62,1.3915e-002
 955.946,295.88,1.3926e-002
 956.622,296.14,1.3937e-002
 957.295,296.4,1.3948e-002
 957.97,296.66,1.3959e-002
 958.658,296.92,1.3971e-002
 959.336,297.18,1.3982e-002
 960.044,297.44,1.3993e-002
 960.755,297.7,1.4004e-002
 961.464,297.96,1.4016e-002
 962.15,298.22,1.4028e-002
 962.817,298.48,1.4039e-002
 963.477,298.74,1.4050e-002
 964.121,299,1.4061e-002
 964.774,299.26,1.4072e-002
 965.432,299.52,1.4082e-002
 966.105,299.78,1.4092e-002
 966.804,300.04,1.4103e-002
 967.531,300.3,1.4113e-002
 968.269,300.56,1.4125e-002
 969.019,300.82,1.4136e-002
 969.744,301.08,1.4148e-002
 970.458,301.34,1.4160e-002
 971.168,301.6,1.4171e-002
 971.881,301.86,1.4182e-002
 972.601,302.12,1.4194e-002
 973.316,302.38,1.4205e-002
 974.028,302.64,1.4217e-002
 974.746,302.9,1.4228e-002
 975.457,303.16,1.4240e-002
 976.16,303.42,1.4251e-002
 976.874,303.68,1.4263e-002
 977.581,303.94,1.4275e-002
 978.286,304.2,1.4286e-002
 978.991,304.46,1.4297e-002
 979.704,304.72,1.4308e-002
 980.405,304.98,1.4320e-002
 981.11,305.24,1.4332e-002
 981.817,305.5,1.4342e-002
 982.525,305.76,1.4353e-002
 983.243,306.02,1.4365e-002
 983.958,306.28,1.4377e-002
 984.678,306.54,1.4388e-002
 985.393,306.8,1.4400e-002
 986.1,307.06,1.4412e-002
 986.81,307.32,1.4423e-002
 987.524,307.58,1.4435e-002
 988.236,307.84,1.4446e-002
 988.962,308.1,1.4458e-002
 989.678,308.36,1.4469e-002
 990.388,308.62,1.4481e-002
 991.104,308.88,1.4492e-002
 991.82,309.14,1.4504e-002
 992.523,309.4,1.4515e-002
 993.23,309.66,1.4527e-002
 993.935,309.92,1.4538e-002
 994.637,310.18,1.4550e-002
 995.34,310.44,1.4561e-002
 996.054,310.7,1.4572e-002
 996.761,310.96,1.4583e-002
 997.469,311.22,1.4596e-002
 998.179,311.48,1.4607e-002
 998.873,311.74,1.4618e-002
 999.57,312,1.4629e-002
1000.26,312.26,1.4641e-002
1000.97,312.52,1.4652e-002
1001.67,312.78,1.4663e-002
1002.37,313.04,1.4674e-002
1003.08,313.3,1.4686e-002
1003.77,313.56,1.4698e-002
1004.44,313.82,1.4709e-002
1005.1,314.08,1.4721e-002
1005.77,314.34,1.4732e-002
1006.44,314.6,1.4742e-002
1007.12,314.86,1.4752e-002
1007.79,315.12,1.4764e-002
1008.47,315.38,1.4775e-002
1009.16,315.64,1.4787e-002
1009.85,315.9,1.4798e-002
1010.55,316.16,1.4809e-002
1011.27,316.42,1.4820e-002
1011.99,316.68,1.4832e-002
1012.72,316.94,1.4843e-002
1013.48,317.2,1.4855e-002
1014.24,317.46,1.4867e-002
1014.98,317.72,1.4879e-002
1015.7,317.98,1.4892e-002
1016.4,318.24,1.4903e-002
1017.11,318.5,1.4915e-002
1017.82,318.76,1.4926e-002
1018.52,319.02,1.4937e-002
1019.25,319.28,1.4949e-002
1019.97,319.54,1.4960e-002
1020.7,319.8,1.4972e-002
1021.43,320.06,1.4983e-002
1022.17,320.32,1.4995e-002
1022.9,320.58,1.5007e-002
1023.63,320.84,1.5019e-002
1024.36,321.1,1.5030e-002
1025.08,321.36,1.5042e-002
1025.79,321.62,1.5054e-002
1026.49,321.88,1.5066e-002
1027.19,322.14,1.5076e-002
1027.9,322.4,1.5089e-002
1028.6,322.66,1.5099e-002
1029.32,322.92,1.5110e-002
1030.05,323.18,1.5122e-002
1030.77,323.44,1.5133e-002
1031.47,323.7,1.5145e-002
1032.18,323.96,1.5157e-002
1032.88,324.22,1.5168e-002
1033.59,324.48,1.5180e-002
1034.31,324.74,1.5191e-002
1035.02,325,1.5202e-002
1035.73,325.26,1.5214e-002
1036.43,325.52,1.5225e-002
1037.12,325.78,1.5237e-002
1037.82,326.04,1.5247e-002
1038.55,326.3,1.5259e-002
1039.29,326.56,1.5270e-002
1040.01,326.82,1.5282e-002
1040.72,327.08,1.5294e-002
1041.41,327.34,1.5305e-002
1042.09,327.6,1.5318e-002
1042.78,327.86,1.5329e-002
1043.49,328.12,1.5339e-002
1044.2,328.38,1.5350e-002
1044.91,328.64,1.5362e-002
1045.63,328.9,1.5373e-002
1046.36,329.16,1.5385e-002
1047.11,329.42,1.5396e-002
1047.86,329.68,1.5409e-002
1048.61,329.94,1.5421e-002
1049.34,330.2,1.5433e-002
1050.06,330.46,1.5446e-002
1050.76,330.72,1.5458e-002
1051.44,330.98,1.5469e-002
1052.15,331.24,1.5481e-002
1052.87,331.5,1.5492e-002
1053.58,331.76,1.5505e-002
1054.28,332.02,1.5516e-002
1055,332.28,1.5527e-002
1055.75,332.54,1.5539e-002
1056.49,332.8,1.5550e-002
1057.24,333.06,1.5562e-002
1058.02,333.32,1.5573e-002
1058.79,333.58,1.5586e-002
1059.56,333.84,1.5598e-002
1060.32,334.1,1.5611e-002
1061.07,334.36,1.5623e-002
1061.8,334.62,1.5635e-002
1062.54,334.88,1.5646e-002
1063.29,335.14,1.5657e-002
1064.03,335.4,1.5671e-002
1064.77,335.66,1.5682e-002
1065.5,335.92,1.5695e-002
1066.21,336.18,1.5707e-002
1066.92,336.44,1.5718e-002
1067.62,336.7,1.5730e-002
1068.31,336.96,1.5741e-002
1069,337.22,1.5752e-002
1069.69,337.48,1.5764e-002
1070.37,337.74,1.5775e-002
1071.05,338,1.5785e-002
1071.74,338.26,1.5796e-002
1072.42,338.52,1.5807e-002
1073.08,338.78,1.5818e-002
1073.73,339.04,1.5831e-002
1074.39,339.3,1.5841e-002
1075.06,339.56,1.5851e-002
1075.78,339.82,1.5861e-002
1076.51,340.08,1.5872e-002
1077.23,340.34,1.5884e-002
1077.95,340.6,1.5895e-002
1078.67,340.86,1.5908e-002
1079.4,341.12,1.5919e-002
1080.13,341.38,1.5930e-002
1080.88,341.64,1.5942e-002
1081.61,341.9,1.5954e-002
1082.35,342.16,1.5966e-002
1083.08,342.42,1.5978e-002
1083.8,342.68,1.5990e-002
1084.52,342.94,1.6001e-002
1085.24,343.2,1.6012e-002
1085.96,343.46,1.6024e-002
1086.68,343.72,1.6035e-002
1087.38,343.98,1.6047e-002
1088.04,344.24,1.6059e-002
1088.73,344.5,1.6070e-002
1089.48,344.76,1.6080e-002
1090.27,345.02,1.6092e-002
1091.05,345.28,1.6104e-002
1091.8,345.54,1.6117e-002
1092.52,345.8,1.6130e-002
1093.19,346.06,1.6142e-002
1093.87,346.32,1.6153e-002
1094.54,346.58,1.6163e-002
1095.24,346.84,1.6174e-002
1095.94,347.1,1.6187e-002
1096.67,347.36,1.6198e-002
1097.43,347.62,1.6209e-002
1098.2,347.88,1.6220e-002
1098.95,348.14,1.6233e-002
1099.68,348.4,1.6245e-002
1100.42,348.66,1.6257e-002
1101.13,348.92,1.6269e-002
1101.85,349.18,1.6280e-002
1102.55,349.44,1.6292e-002
1103.24,349.7,1.6303e-002
1103.93,349.96,1.6314e-002
1104.62,350.22,1.6325e-002
1105.31,350.48,1.6336e-002
1106,350.74,1.6346e-002
1106.7,351,1.6357e-002
1107.43,351.26,1.6369e-002
1108.15,351.52,1.6381e-002
1108.88,351.78,1.6392e-002
1109.59,352.04,1.6403e-002
1110.28,352.3,1.6416e-002
1110.96,352.56,1.6427e-002
1111.66,352.82,1.6437e-002
1112.37,353.08,1.6448e-002
1113.1,353.34,1.6460e-002
1113.79,353.6,1.6470e-002
1114.52,353.86,1.6482e-002
1115.25,354.12,1.6493e-002
1115.98,354.38,1.6505e-002
1116.73,354.64,1.6516e-002
1117.46,354.9,1.6528e-002
1118.19,355.16,1.6540e-002
1118.92,355.42,1.6551e-002
1119.64,355.68,1.6562e-002
1120.4,355.94,1.6573e-002
1121.15,356.2,1.6585e-002
1121.9,356.46,1.6598e-002
1122.65,356.72,1.6610e-002
1123.4,356.98,1.6622e-002
1124.13,357.24,1.6633e-002
1124.86,357.5,1.6645e-002
1125.59,357.76,1.6657e-002
1126.35,358.02,1.6668e-002
1127.11,358.28,1.6680e-002
1127.86,358.54,1.6693e-002
1128.59,358.8,1.6706e-002
1129.29,359.06,1.6718e-002
1129.96,359.32,1.6729e-002
1130.62,359.58,1.6740e-002
1131.29,359.84,1.6750e-002
1131.97,360.1,1.6761e-002
1132.66,360.36,1.6772e-002
1133.35,360.62,1.6783e-002
1134.02,360.88,1.6794e-002
1134.7,361.14,1.6804e-002
1135.43,361.4,1.6814e-002
1136.2,361.66,1.6825e-002
1136.96,361.92,1.6838e-002
1137.73,362.18,1.6850e-002
1138.48,362.44,1.6862e-002
1139.22,362.7,1.6875e-002
1139.94,362.96,1.6887e-002
1140.66,363.22,1.6898e-002
1141.36,363.48,1.6909e-002
1142.09,363.74,1.6920e-002
1142.81,364,1.6931e-002
1143.53,364.26,1.6942e-002
1144.25,364.52,1.6954e-002
1144.96,364.78,1.6966e-002
1145.72,365.04,1.6977e-002
1146.49,365.3,1.6988e-002
1147.23,365.56,1.7000e-002
1147.96,365.82,1.7012e-002
1148.67,366.08,1.7024e-002
1149.39,366.34,1.7034e-002
1150.12,366.6,1.7046e-002
1150.84,366.86,1.7057e-002
1151.55,367.12,1.7069e-002
1152.24,367.38,1.7080e-002
1152.93,367.64,1.7091e-002
1153.59,367.9,1.7102e-002
1154.26,368.16,1.7112e-002
1154.94,368.42,1.7123e-002
1155.64,368.68,1.7133e-002
1156.36,368.94,1.7144e-002
1157.05,369.2,1.7156e-002
1157.71,369.46,1.7169e-002
1158.38,369.72,1.7179e-002
1159.07,369.98,1.7190e-002
1159.83,370.24,1.7200e-002
1160.6,370.5,1.7211e-002
1161.39,370.76,1.7224e-002
1162.15,371.02,1.7236e-002
1162.89,371.28,1.7248e-002
1163.62,371.54,1.7260e-002
1164.36,371.8,1.7271e-002
1165.13,372.06,1.7282e-002
1165.9,372.32,1.7296e-002
1166.65,372.58,1.7308e-002
1167.39,372.84,1.7320e-002
1168.15,373.1,1.7331e-002
1168.94,373.36,1.7343e-002
1169.75,373.62,1.7355e-002
1170.55,373.88,1.7368e-002
1171.33,374.14,1.7381e-002
1172.09,374.4,1.7393e-002
1172.85,374.66,1.7406e-002
1173.57,374.92,1.7418e-002
1174.26,375.18,1.7429e-002
1174.95,375.44,1.7440e-002
1175.63,375.7,1.7451e-002
1176.32,375.96,1.7461e-002
1177.02,376.22,1.7472e-002
1177.74,376.48,1.7482e-002
1178.47,376.74,1.7494e-002
1179.18,377,1.7506e-002
1179.87,377.26,1.7518e-002
1180.54,377.52,1.7529e-002
1181.19,377.78,1.7539e-002
1181.86,378.04,1.7549e-002
1182.52,378.3,1.7560e-002
1183.18,378.56,1.7570e-002
1183.83,378.82,1.7582e-002
1184.5,379.08,1.7592e-002
1185.2,379.34,1.7603e-002
1185.91,379.6,1.7613e-002
1186.64,379.86,1.7624e-002
1187.34,380.12,1.7636e-002
1188.06,380.38,1.7648e-002
1188.81,380.64,1.7659e-002
1189.56,380.9,1.7670e-002
1190.3,381.16,1.7682e-002
1191.05,381.42,1.7694e-002
1191.8,381.68,1.7706e-002
1192.55,381.94,1.7718e-002
1193.3,382.2,1.7729e-002
1194.06,382.46,1.7742e-002
1194.82,382.72,1.7754e-002
1194.89,382.742,1.7755e-002