File: data/14.1mm-083019/anorShaws1r1-13mm-090119.csv
#EXPORTTYPE:           ,DATA ALL
#FILE:                 ,anorthShawS1R1.ngb-sle
#FORMAT:               ,NETZSCH5
#FTYPE:                ,ANSI
#IDENTITY:             ,anorthosite shawmere
#DECIMAL:              ,POINT
#SEPARATOR:            ,COMMA
#MTYPE:                ,DIL
#INSTRUMENT:           ,NETZSCH DIL 402C
#PROJECT:              ,feldspar
#DATE/TIME:            ,9/1/2019 1:09:40 PM (UTC-5)
#CORR. FILE:           ,
#TEMPCAL:              ,TCALZERO.TMX
#LABORATORY:           ,Mineral Physics
#OPERATOR:             ,PAG
#REMARK:               ,bare, norm start, for bytown and rocks, shawmere thin fresh
#SAMPLE:               ,shawmere fresh
#SAMPLE LENGTH /mm:    ,12.99
#MATERIAL:             ,sapphire stnd
#MEASMODE:             ,Standard Expansion
#PURGE GAS 1:          ,ARGON
#FLOW RATE 1 /(ml/min):,75
#M.RANGE /µm:          ,500
#CORR. CODE:           ,010
#RANGE:                ,20.0°C/3.0(K/min)/1000.0°C
#SEGMENT:              ,S1/1
#SEG. 1:               ,20.0°C/3.0(K/min)/1000.0°C

##Temp./°C,Time/min,dL/Lo,Alpha/(1/K)
 23.02700,  0.00000, 2.7601e-005,-1.0043e-006
 24.02700,  4.89583, 6.6809e-006,-1.2579e-005
 25.02700,  5.36594,-4.4134e-006,-9.6902e-006
 26.02700,  5.71629,-1.3386e-005,-7.4908e-006
 27.02700,  6.01126,-2.0373e-005,-6.6302e-006
 28.02700,  6.27440,-2.5651e-005,-4.4305e-006
 29.02700,  6.51871,-2.9848e-005,-3.7507e-006
 30.02700,  6.75017,-3.3417e-005,-3.0888e-006
 31.02700,  6.97289,-3.5431e-005,-1.1483e-006
 32.02700,  7.18878,-3.6328e-005,-6.6875e-007
 33.02700,  7.40097,-3.6870e-005,-3.3921e-008
 34.02700,  7.61089,-3.6896e-005, 7.7760e-007
 35.02700,  7.81980,-3.6082e-005, 1.4167e-006
 36.02700,  8.02734,-3.4023e-005, 2.4421e-006
 37.02700,  8.23424,-3.1167e-005, 2.9203e-006
 38.02700,  8.44063,-2.8114e-005, 3.1047e-006
 39.02700,  8.64686,-2.4220e-005, 4.4370e-006
 40.02700,  8.85274,-1.9901e-005, 4.4207e-006
 41.02700,  9.05846,-1.5020e-005, 4.9594e-006
 42.02700,  9.26421,-1.0107e-005, 5.3526e-006
 43.02700,  9.46945,-4.5631e-006, 5.4528e-006
 44.02700,  9.67456, 4.7157e-007, 5.5502e-006
 45.02700,  9.87854, 6.4980e-006, 5.7054e-006
 46.02700, 10.08158, 1.2296e-005, 5.8210e-006
 47.02700, 10.28337, 1.8088e-005, 6.0855e-006
 48.02700, 10.48362, 2.4493e-005, 6.3274e-006
 49.02700, 10.68254, 3.0718e-005, 6.1573e-006
 50.02700, 10.87969, 3.7191e-005, 6.4870e-006
 51.02700, 11.07539, 4.3927e-005, 6.4861e-006
 52.02700, 11.26959, 5.0407e-005, 6.6922e-006
 53.02700, 11.46215, 5.7166e-005, 7.1725e-006
 54.02700, 11.65371, 6.4567e-005, 6.8190e-006
 55.02700, 11.84460, 7.1454e-005, 7.0561e-006
 56.02700, 12.03476, 7.8597e-005, 7.0030e-006
 57.02700, 12.22473, 8.5660e-005, 7.3071e-006
 58.02700, 12.41405, 9.3194e-005, 7.7592e-006
 59.02700, 12.60249, 1.0073e-004, 7.5227e-006
 60.02700, 12.79037, 1.0858e-004, 7.9305e-006
 61.02700, 12.97793, 1.1661e-004, 8.1219e-006
 62.02700, 13.16540, 1.2461e-004, 8.0960e-006
 63.02700, 13.35290, 1.3300e-004, 8.5019e-006
 64.02700, 13.54036, 1.4127e-004, 8.5648e-006
 65.02700, 13.72753, 1.5011e-004, 8.3736e-006
 66.02700, 13.91459, 1.5896e-004, 9.0721e-006
 67.02700, 14.10229, 1.6786e-004, 9.1000e-006
 68.02700, 14.29070, 1.7669e-004, 9.2249e-006
 69.02700, 14.47952, 1.8577e-004, 9.3806e-006
 70.02700, 14.66867, 1.9546e-004, 9.2647e-006
 71.02700, 14.85758, 2.0473e-004, 9.6335e-006
 72.02700, 15.04632, 2.1400e-004, 9.8062e-006
 73.02700, 15.23582, 2.2366e-004, 9.4322e-006
 74.02700, 15.42631, 2.3361e-004, 9.3433e-006
 75.02700, 15.61706, 2.4278e-004, 1.0062e-005
 76.02700, 15.80845, 2.5293e-004, 9.7982e-006
 77.02700, 15.99930, 2.6275e-004, 9.8530e-006
 78.02700, 16.18995, 2.7294e-004, 1.0081e-005
 79.02700, 16.38126, 2.8277e-004, 9.9530e-006
 80.02700, 16.57259, 2.9279e-004, 1.0046e-005
 81.02700, 16.76459, 3.0297e-004, 9.9542e-006
 82.02700, 16.95666, 3.1322e-004, 1.0541e-005
 83.02700, 17.14882, 3.2334e-004, 1.0541e-005
 84.02700, 17.34165, 3.3408e-004, 1.0352e-005
 85.02700, 17.53459, 3.4459e-004, 1.0158e-005
 86.02700, 17.72806, 3.5512e-004, 1.0681e-005
 87.02700, 17.92189, 3.6566e-004, 1.0768e-005
 88.02700, 18.11576, 3.7640e-004, 1.0537e-005
 89.02700, 18.31001, 3.8722e-004, 1.1102e-005
 90.02700, 18.50451, 3.9781e-004, 1.0890e-005
 91.02700, 18.69963, 4.0860e-004, 1.0787e-005
 92.02700, 18.89515, 4.1942e-004, 1.0661e-005
 93.02700, 19.09138, 4.2990e-004, 1.0986e-005
 94.02700, 19.28825, 4.4113e-004, 1.1097e-005
 95.02700, 19.48526, 4.5221e-004, 1.0712e-005
 96.02700, 19.68326, 4.6304e-004, 1.1059e-005
 97.02700, 19.88149, 4.7406e-004, 1.1084e-005
 98.02700, 20.08051, 4.8529e-004, 1.1217e-005
 99.02700, 20.27956, 4.9640e-004, 1.1364e-005
100.027, 20.47851, 5.0774e-004, 1.0936e-005
101.027, 20.67753, 5.1867e-004, 1.1365e-005
102.027, 20.87719, 5.3021e-004, 1.1037e-005
103.027, 21.07751, 5.4153e-004, 1.1068e-005
104.027, 21.27818, 5.5239e-004, 1.1303e-005
105.027, 21.47932, 5.6378e-004, 1.1480e-005
106.027, 21.68048, 5.7496e-004, 1.1354e-005
107.027, 21.88226, 5.8655e-004, 1.1494e-005
108.027, 22.08470, 5.9778e-004, 1.1711e-005
109.027, 22.28730, 6.0939e-004, 1.1377e-005
110.027, 22.49004, 6.2078e-004, 1.1502e-005
111.027, 22.69335, 6.3222e-004, 1.1386e-005
112.027, 22.89689, 6.4395e-004, 1.1548e-005
113.027, 23.10012, 6.5537e-004, 1.1546e-005
114.027, 23.30353, 6.6704e-004, 1.1498e-005
115.027, 23.50716, 6.7867e-004, 1.1596e-005
116.027, 23.71157, 6.9007e-004, 1.1704e-005
117.027, 23.91684, 7.0174e-004, 1.1521e-005
118.027, 24.12244, 7.1333e-004, 1.1567e-005
119.027, 24.32800, 7.2506e-004, 1.1709e-005
120.027, 24.53369, 7.3690e-004, 1.1815e-005
121.027, 24.73941, 7.4865e-004, 1.1547e-005
122.027, 24.94517, 7.6044e-004, 1.1747e-005
123.027, 25.15151, 7.7202e-004, 1.1815e-005
124.027, 25.35828, 7.8416e-004, 1.1705e-005
125.027, 25.56536, 7.9592e-004, 1.2424e-005
126.027, 25.77298, 8.0773e-004, 1.1846e-005
127.027, 25.98111, 8.1958e-004, 1.2215e-005
128.027, 26.18944, 8.3124e-004, 1.1894e-005
129.027, 26.39839, 8.4311e-004, 1.1776e-005
130.027, 26.60769, 8.5523e-004, 1.2071e-005
131.027, 26.81742, 8.6707e-004, 1.1954e-005
132.027, 27.02741, 8.7929e-004, 1.1784e-005
133.027, 27.23730, 8.9133e-004, 1.1929e-005
134.027, 27.44728, 9.0347e-004, 1.2155e-005
135.027, 27.65747, 9.1539e-004, 1.1983e-005
136.027, 27.86808, 9.2748e-004, 1.2162e-005
137.027, 28.07886, 9.3963e-004, 1.2306e-005
138.027, 28.28989, 9.5179e-004, 1.2221e-005
139.027, 28.50148, 9.6408e-004, 1.2190e-005
140.027, 28.71299, 9.7628e-004, 1.2338e-005
141.027, 28.92469, 9.8866e-004, 1.2848e-005
142.027, 29.13591, 1.0015e-003, 1.2558e-005
143.027, 29.34750, 1.0138e-003, 1.2391e-005
144.027, 29.55999, 1.0262e-003, 1.2300e-005
145.027, 29.77313, 1.0385e-003, 1.2443e-005
146.027, 29.98647, 1.0512e-003, 1.2755e-005
147.027, 30.19986, 1.0634e-003, 1.2499e-005
148.027, 30.41317, 1.0760e-003, 1.2202e-005
149.027, 30.62670, 1.0885e-003, 1.2608e-005
150.027, 30.84064, 1.1011e-003, 1.2502e-005
151.027, 31.05462, 1.1134e-003, 1.2650e-005
152.027, 31.26947, 1.1260e-003, 1.2490e-005
153.027, 31.48400, 1.1384e-003, 1.2597e-005
154.027, 31.69891, 1.1514e-003, 1.2691e-005
155.027, 31.91400, 1.1639e-003, 1.2769e-005
156.027, 32.12954, 1.1764e-003, 1.2604e-005
157.027, 32.34561, 1.1889e-003, 1.2933e-005
158.027, 32.56205, 1.2020e-003, 1.2629e-005
159.027, 32.77830, 1.2144e-003, 1.2714e-005
160.027, 32.99490, 1.2272e-003, 1.2033e-005
161.027, 33.21103, 1.2402e-003, 1.3150e-005
162.027, 33.42836, 1.2529e-003, 1.2521e-005
163.027, 33.64630, 1.2653e-003, 1.2875e-005
164.027, 33.86553, 1.2779e-003, 1.2642e-005
165.027, 34.08463, 1.2905e-003, 1.3118e-005
166.027, 34.30335, 1.3036e-003, 1.2971e-005
167.027, 34.52131, 1.3170e-003, 1.2837e-005
168.027, 34.73898, 1.3296e-003, 1.3061e-005
169.027, 34.95646, 1.3428e-003, 1.2948e-005
170.027, 35.17558, 1.3556e-003, 1.3510e-005
171.027, 35.39479, 1.3690e-003, 1.2706e-005
172.027, 35.61531, 1.3816e-003, 1.2956e-005
173.027, 35.83582, 1.3945e-003, 1.3136e-005
174.027, 36.05597, 1.4076e-003, 1.2901e-005
175.027, 36.27601, 1.4206e-003, 1.2828e-005
176.027, 36.49561, 1.4339e-003, 1.2967e-005
177.027, 36.71596, 1.4471e-003, 1.3194e-005
178.027, 36.93690, 1.4602e-003, 1.2869e-005
179.027, 37.15800, 1.4732e-003, 1.3479e-005
180.027, 37.37944, 1.4865e-003, 1.3333e-005
181.027, 37.60134, 1.5003e-003, 1.3679e-005
182.027, 37.82392, 1.5134e-003, 1.3124e-005
183.027, 38.04721, 1.5262e-003, 1.3019e-005
184.027, 38.27063, 1.5397e-003, 1.3227e-005
185.027, 38.49399, 1.5524e-003, 1.2796e-005
186.027, 38.71793, 1.5654e-003, 1.2974e-005
187.027, 38.94164, 1.5784e-003, 1.3386e-005
188.027, 39.16567, 1.5919e-003, 1.3019e-005
189.027, 39.38944, 1.6051e-003, 1.3258e-005
190.027, 39.61355, 1.6185e-003, 1.3080e-005
191.027, 39.83776, 1.6317e-003, 1.2905e-005
192.027, 40.06222, 1.6454e-003, 1.2856e-005
193.027, 40.28681, 1.6580e-003, 1.2990e-005
194.027, 40.51219, 1.6715e-003, 1.3333e-005
195.027, 40.73807, 1.6843e-003, 1.3237e-005
196.027, 40.96473, 1.6977e-003, 1.3123e-005
197.027, 41.19138, 1.7108e-003, 1.3613e-005
198.027, 41.41789, 1.7243e-003, 1.2953e-005
199.027, 41.64434, 1.7378e-003, 1.3806e-005
200.027, 41.87130, 1.7513e-003, 1.3412e-005
201.027, 42.09913, 1.7650e-003, 1.3529e-005
202.027, 42.32738, 1.7785e-003, 1.3849e-005
203.027, 42.55631, 1.7924e-003, 1.3158e-005
204.027, 42.78593, 1.8061e-003, 1.3977e-005
205.027, 43.01644, 1.8197e-003, 1.4133e-005
206.027, 43.24733, 1.8336e-003, 1.3371e-005
207.027, 43.47898, 1.8476e-003, 1.3698e-005
208.027, 43.71127, 1.8614e-003, 1.3900e-005
209.027, 43.94410, 1.8751e-003, 1.4048e-005
210.027, 44.17732, 1.8894e-003, 1.3710e-005
211.027, 44.41066, 1.9028e-003, 1.3687e-005
212.027, 44.64505, 1.9165e-003, 1.3857e-005
213.027, 44.87939, 1.9301e-003, 1.3305e-005
214.027, 45.11281, 1.9430e-003, 1.3026e-005
215.027, 45.34507, 1.9561e-003, 1.3083e-005
216.027, 45.57629, 1.9690e-003, 1.2913e-005
217.027, 45.80692, 1.9819e-003, 1.2652e-005
218.027, 46.03603, 1.9945e-003, 1.2868e-005
219.027, 46.26394, 2.0075e-003, 1.2416e-005
220.027, 46.49085, 2.0199e-003, 1.2376e-005
221.027, 46.71699, 2.0324e-003, 1.2269e-005
222.027, 46.94244, 2.0447e-003, 1.2530e-005
223.027, 47.16716, 2.0571e-003, 1.2422e-005
224.027, 47.39188, 2.0695e-003, 1.2204e-005
225.027, 47.61583, 2.0820e-003, 1.2338e-005
226.027, 47.83962, 2.0948e-003, 1.2828e-005
227.027, 48.06297, 2.1073e-003, 1.2466e-005
228.027, 48.28628, 2.1202e-003, 1.2763e-005
229.027, 48.51024, 2.1330e-003, 1.2907e-005
230.027, 48.73410, 2.1461e-003, 1.3027e-005
231.027, 48.95833, 2.1590e-003, 1.3157e-005
232.027, 49.18262, 2.1722e-003, 1.2821e-005
233.027, 49.40813, 2.1851e-003, 1.2994e-005
234.027, 49.63464, 2.1985e-003, 1.3382e-005
235.027, 49.86214, 2.2119e-003, 1.3684e-005
236.027, 50.09022, 2.2260e-003, 1.3829e-005
237.027, 50.31894, 2.2393e-003, 1.3352e-005
238.027, 50.54908, 2.2528e-003, 1.3423e-005
239.027, 50.78047, 2.2662e-003, 1.3689e-005
240.027, 51.01187, 2.2798e-003, 1.3337e-005
241.027, 51.24356, 2.2937e-003, 1.3962e-005
242.027, 51.47552, 2.3071e-003, 1.3445e-005
243.027, 51.70895, 2.3206e-003, 1.3483e-005
244.027, 51.94309, 2.3342e-003, 1.4185e-005
245.027, 52.17814, 2.3479e-003, 1.3649e-005
246.027, 52.41311, 2.3613e-003, 1.3836e-005
247.027, 52.64826, 2.3748e-003, 1.3488e-005
248.027, 52.88346, 2.3887e-003, 1.3516e-005
249.027, 53.11954, 2.4017e-003, 1.3581e-005
250.027, 53.35654, 2.4154e-003, 1.3188e-005
251.027, 53.59455, 2.4285e-003, 1.3617e-005
252.027, 53.83363, 2.4419e-003, 1.3635e-005
253.027, 54.07262, 2.4557e-003, 1.3879e-005
254.027, 54.31216, 2.4695e-003, 1.3514e-005
255.027, 54.55255, 2.4827e-003, 1.3121e-005
256.027, 54.79457, 2.4964e-003, 1.3533e-005
257.027, 55.03745, 2.5098e-003, 1.3220e-005
258.027, 55.28090, 2.5236e-003, 1.3599e-005
259.027, 55.52531, 2.5373e-003, 1.3642e-005
260.027, 55.77054, 2.5510e-003, 1.3849e-005
261.027, 56.01567, 2.5649e-003, 1.3741e-005
262.027, 56.26071, 2.5786e-003, 1.3655e-005
263.027, 56.50554, 2.5921e-003, 1.3960e-005
264.027, 56.75118, 2.6061e-003, 1.3617e-005
265.027, 56.99723, 2.6194e-003, 1.3482e-005
266.027, 57.24351, 2.6335e-003, 1.4296e-005
267.027, 57.49070, 2.6475e-003, 1.3510e-005
268.027, 57.73907, 2.6612e-003, 1.3278e-005
269.027, 57.98840, 2.6750e-003, 1.3836e-005
270.027, 58.23791, 2.6886e-003, 1.3330e-005
271.027, 58.48788, 2.7021e-003, 1.3629e-005
272.027, 58.73820, 2.7158e-003, 1.3207e-005
273.027, 58.98910, 2.7289e-003, 1.3641e-005
274.027, 59.23998, 2.7429e-003, 1.3935e-005
275.027, 59.49161, 2.7566e-003, 1.4001e-005
276.027, 59.74308, 2.7705e-003, 1.3941e-005
277.027, 59.99521, 2.7839e-003, 1.3326e-005
278.027, 60.24798, 2.7975e-003, 1.3517e-005
279.027, 60.50167, 2.8109e-003, 1.3754e-005
280.027, 60.75505, 2.8242e-003, 1.3334e-005
281.027, 61.00785, 2.8376e-003, 1.2935e-005
282.027, 61.26082, 2.8512e-003, 1.3227e-005
283.027, 61.51450, 2.8645e-003, 1.3869e-005
284.027, 61.76860, 2.8782e-003, 1.3297e-005
285.027, 62.02333, 2.8913e-003, 1.3538e-005
286.027, 62.27850, 2.9049e-003, 1.4018e-005
287.027, 62.53378, 2.9184e-003, 1.3699e-005
288.027, 62.78905, 2.9318e-003, 1.3186e-005
289.027, 63.04509, 2.9449e-003, 1.3156e-005
290.027, 63.30188, 2.9586e-003, 1.3447e-005
291.027, 63.55948, 2.9717e-003, 1.3526e-005
292.027, 63.81798, 2.9855e-003, 1.3363e-005
293.027, 64.07693, 2.9989e-003, 1.4136e-005
294.027, 64.33644, 3.0125e-003, 1.3582e-005
295.027, 64.59498, 3.0257e-003, 1.3463e-005
296.027, 64.85325, 3.0393e-003, 1.3244e-005
297.027, 65.11193, 3.0527e-003, 1.3749e-005
298.027, 65.37195, 3.0660e-003, 1.3609e-005
299.027, 65.63183, 3.0796e-003, 1.3365e-005
300.027, 65.89155, 3.0929e-003, 1.3765e-005
301.027, 66.15126, 3.1060e-003, 1.3587e-005
302.027, 66.41155, 3.1196e-003, 1.3604e-005
303.027, 66.67271, 3.1332e-003, 1.3356e-005
304.027, 66.93411, 3.1461e-003, 1.3030e-005
305.027, 67.19560, 3.1597e-003, 1.3311e-005
306.027, 67.45714, 3.1729e-003, 1.3126e-005
307.027, 67.71914, 3.1860e-003, 1.3437e-005
308.027, 67.98098, 3.1992e-003, 1.3291e-005
309.027, 68.24330, 3.2125e-003, 1.3146e-005
310.027, 68.50640, 3.2256e-003, 1.3195e-005
311.027, 68.76990, 3.2390e-003, 1.3677e-005
312.027, 69.03345, 3.2525e-003, 1.3446e-005
313.027, 69.29779, 3.2662e-003, 1.3316e-005
314.027, 69.56246, 3.2795e-003, 1.3459e-005
315.027, 69.82675, 3.2932e-003, 1.3512e-005
316.027, 70.09114, 3.3064e-003, 1.3429e-005
317.027, 70.35594, 3.3201e-003, 1.3223e-005
318.027, 70.62099, 3.3332e-003, 1.3570e-005
319.027, 70.88661, 3.3465e-003, 1.3528e-005
320.027, 71.15293, 3.3603e-003, 1.3065e-005
321.027, 71.41967, 3.3732e-003, 1.4012e-005
322.027, 71.68712, 3.3867e-003, 1.3114e-005
323.027, 71.95505, 3.4001e-003, 1.3256e-005
324.027, 72.22275, 3.4138e-003, 1.3313e-005
325.027, 72.48960, 3.4271e-003, 1.3159e-005
326.027, 72.75734, 3.4409e-003, 1.3502e-005
327.027, 73.02587, 3.4540e-003, 1.3790e-005
328.027, 73.29469, 3.4675e-003, 1.3450e-005
329.027, 73.56371, 3.4810e-003, 1.3498e-005
330.027, 73.83358, 3.4944e-003, 1.3868e-005
331.027, 74.10367, 3.5079e-003, 1.3516e-005
332.027, 74.37377, 3.5216e-003, 1.3331e-005
333.027, 74.64422, 3.5350e-003, 1.3277e-005
334.027, 74.91467, 3.5488e-003, 1.3540e-005
335.027, 75.18520, 3.5621e-003, 1.2866e-005
336.027, 75.45568, 3.5750e-003, 1.3352e-005
337.027, 75.72644, 3.5883e-003, 1.3381e-005
338.027, 75.99741, 3.6017e-003, 1.3984e-005
339.027, 76.26928, 3.6152e-003, 1.3545e-005
340.027, 76.54131, 3.6288e-003, 1.3616e-005
341.027, 76.81371, 3.6421e-003, 1.3273e-005
342.027, 77.08640, 3.6555e-003, 1.3345e-005
343.027, 77.35974, 3.6687e-003, 1.3170e-005
344.027, 77.63290, 3.6825e-003, 1.3598e-005
345.027, 77.90681, 3.6959e-003, 1.3795e-005
346.027, 78.18114, 3.7093e-003, 1.3722e-005
347.027, 78.45595, 3.7228e-003, 1.4015e-005
348.027, 78.73007, 3.7363e-003, 1.3546e-005
349.027, 79.00454, 3.7497e-003, 1.3535e-005
350.027, 79.28023, 3.7633e-003, 1.3427e-005
351.027, 79.55656, 3.7767e-003, 1.3573e-005
352.027, 79.83326, 3.7904e-003, 1.2972e-005
353.027, 80.10921, 3.8031e-003, 1.3192e-005
354.027, 80.38575, 3.8164e-003, 1.2969e-005
355.027, 80.66270, 3.8300e-003, 1.3615e-005
356.027, 80.94026, 3.8432e-003, 1.3203e-005
357.027, 81.21789, 3.8567e-003, 1.3691e-005
358.027, 81.49551, 3.8700e-003, 1.3325e-005
359.027, 81.77357, 3.8836e-003, 1.4040e-005
360.027, 82.05169, 3.8975e-003, 1.3762e-005
361.027, 82.33004, 3.9107e-003, 1.3265e-005
362.027, 82.60967, 3.9243e-003, 1.3373e-005
363.027, 82.89018, 3.9376e-003, 1.3972e-005
364.027, 83.17050, 3.9512e-003, 1.3371e-005
365.027, 83.45065, 3.9647e-003, 1.3123e-005
366.027, 83.73091, 3.9816e-003, 2.9859e-005
367.027, 84.01200, 3.9999e-003, 1.4328e-005
368.027, 84.29319, 4.0138e-003, 1.3952e-005
369.027, 84.57394, 4.0280e-003, 1.4200e-005
370.027, 84.85470, 4.0419e-003, 1.3555e-005
371.027, 85.13624, 4.0552e-003, 1.3977e-005
372.027, 85.41856, 4.0692e-003, 1.3866e-005
373.027, 85.70110, 4.0830e-003, 1.3363e-005
374.027, 85.98320, 4.0964e-003, 1.3473e-005
375.027, 86.26596, 4.1104e-003, 1.3977e-005
376.027, 86.54961, 4.1242e-003, 1.3728e-005
377.027, 86.83420, 4.1379e-003, 1.3846e-005
378.027, 87.11929, 4.1516e-003, 1.3664e-005
379.027, 87.40489, 4.1655e-003, 1.4351e-005
380.027, 87.69066, 4.1794e-003, 1.3878e-005
381.027, 87.97668, 4.1933e-003, 1.4169e-005
382.027, 88.26277, 4.2072e-003, 1.3709e-005
383.027, 88.54942, 4.2209e-003, 1.3721e-005
384.027, 88.83650, 4.2346e-003, 1.3670e-005
385.027, 89.12316, 4.2480e-003, 1.3246e-005
386.027, 89.40982, 4.2621e-003, 1.4629e-005
387.027, 89.69622, 4.2763e-003, 1.4097e-005
388.027, 89.98381, 4.2902e-003, 1.3526e-005
389.027, 90.27180, 4.3039e-003, 1.3729e-005
390.027, 90.55996, 4.3179e-003, 1.4052e-005
391.027, 90.84773, 4.3318e-003, 1.4319e-005
392.027, 91.13536, 4.3457e-003, 1.4000e-005
393.027, 91.42497, 4.3596e-003, 1.3669e-005
394.027, 91.71560, 4.3734e-003, 1.3949e-005
395.027, 92.00668, 4.3872e-003, 1.4377e-005
396.027, 92.29747, 4.4015e-003, 1.3904e-005
397.027, 92.58889, 4.4149e-003, 1.4319e-005
398.027, 92.88068, 4.4287e-003, 1.3941e-005
399.027, 93.17236, 4.4426e-003, 1.3881e-005
400.027, 93.46387, 4.4562e-003, 1.3634e-005
401.027, 93.75469, 4.4703e-003, 1.4179e-005
402.027, 94.04676, 4.4844e-003, 1.3974e-005
403.027, 94.33986, 4.4983e-003, 1.3920e-005
404.027, 94.63298, 4.5120e-003, 1.3636e-005
405.027, 94.92548, 4.5260e-003, 1.4115e-005
406.027, 95.21787, 4.5399e-003, 1.3675e-005
407.027, 95.51042, 4.5538e-003, 1.4255e-005
408.027, 95.80431, 4.5679e-003, 1.3540e-005
409.027, 96.09933, 4.5816e-003, 1.4250e-005
410.027, 96.39471, 4.5955e-003, 1.3694e-005
411.027, 96.68900, 4.6095e-003, 1.3830e-005
412.027, 96.98496, 4.6237e-003, 1.4026e-005
413.027, 97.28181, 4.6371e-003, 1.3870e-005
414.027, 97.57844, 4.6510e-003, 1.4080e-005
415.027, 97.87531, 4.6649e-003, 1.4079e-005
416.027, 98.17341, 4.6789e-003, 1.4058e-005
417.027, 98.47107, 4.6930e-003, 1.4393e-005
418.027, 98.76858, 4.7072e-003, 1.4721e-005
419.027, 99.06659, 4.7211e-003, 1.4267e-005
420.027, 99.36435, 4.7354e-003, 1.3861e-005
421.027, 99.66197, 4.7496e-003, 1.3722e-005
422.027, 99.96033, 4.7632e-003, 1.3932e-005
423.027,100.26, 4.7775e-003, 1.4485e-005
424.027,100.559, 4.7918e-003, 1.3690e-005
425.027,100.859, 4.8062e-003, 1.4373e-005
426.027,101.159, 4.8204e-003, 1.3727e-005
427.027,101.459, 4.8343e-003, 1.3671e-005
428.027,101.759, 4.8483e-003, 1.4627e-005
429.027,102.059, 4.8629e-003, 1.4030e-005
430.027,102.36, 4.8770e-003, 1.3947e-005
431.027,102.661, 4.8913e-003, 1.3924e-005
432.027,102.963, 4.9056e-003, 1.4790e-005
433.027,103.267, 4.9206e-003, 1.4510e-005
434.027,103.572, 4.9350e-003, 1.4654e-005
435.027,103.88, 4.9502e-003, 1.5070e-005
436.027,104.191, 4.9647e-003, 1.4337e-005
437.027,104.501, 4.9791e-003, 1.4830e-005
438.027,104.81, 4.9937e-003, 1.4086e-005
439.027,105.118, 5.0079e-003, 1.3865e-005
440.027,105.423, 5.0216e-003, 1.3396e-005
441.027,105.728, 5.0352e-003, 1.3393e-005
442.027,106.031, 5.0486e-003, 1.3685e-005
443.027,106.332, 5.0620e-003, 1.2824e-005
444.027,106.629, 5.0753e-003, 1.2797e-005
445.027,106.924, 5.0888e-003, 1.3427e-005
446.027,107.217, 5.1023e-003, 1.3345e-005
447.027,107.509, 5.1156e-003, 1.3314e-005
448.027,107.801, 5.1294e-003, 1.3732e-005
449.027,108.094, 5.1428e-003, 1.3679e-005
450.027,108.389, 5.1565e-003, 1.3552e-005
451.027,108.684, 5.1703e-003, 1.3563e-005
452.027,108.979, 5.1839e-003, 1.3607e-005
453.027,109.276, 5.1983e-003, 1.4235e-005
454.027,109.574, 5.2122e-003, 1.4673e-005
455.027,109.874, 5.2262e-003, 1.3557e-005
456.027,110.176, 5.2401e-003, 1.3895e-005
457.027,110.478, 5.2544e-003, 1.4245e-005
458.027,110.78, 5.2688e-003, 1.4178e-005
459.027,111.083, 5.2829e-003, 1.4261e-005
460.027,111.386, 5.2970e-003, 1.4346e-005
461.027,111.69, 5.3107e-003, 1.3253e-005
462.027,111.995, 5.3247e-003, 1.4082e-005
463.027,112.302, 5.3384e-003, 1.4170e-005
464.027,112.61, 5.3526e-003, 1.3886e-005
465.027,112.92, 5.3668e-003, 1.4358e-005
466.027,113.231, 5.3812e-003, 1.3991e-005
467.027,113.543, 5.3949e-003, 1.3947e-005
468.027,113.854, 5.4084e-003, 1.2998e-005
469.027,114.165, 5.4221e-003, 1.3282e-005
470.027,114.477, 5.4361e-003, 1.3987e-005
471.027,114.789, 5.4494e-003, 1.3576e-005
472.027,115.102, 5.4629e-003, 1.3870e-005
473.027,115.416, 5.4767e-003, 1.3899e-005
474.027,115.731, 5.4904e-003, 1.3716e-005
475.027,116.046, 5.5043e-003, 1.4043e-005
476.027,116.362, 5.5187e-003, 1.4150e-005
477.027,116.68, 5.5328e-003, 1.4176e-005
478.027,116.998, 5.5469e-003, 1.4399e-005
479.027,117.317, 5.5610e-003, 1.4331e-005
480.027,117.636, 5.5751e-003, 1.4369e-005
481.027,117.956, 5.5891e-003, 1.4321e-005
482.027,118.276, 5.6036e-003, 1.4007e-005
483.027,118.595, 5.6175e-003, 1.3982e-005
484.027,118.914, 5.6316e-003, 1.4040e-005
485.027,119.234, 5.6455e-003, 1.4074e-005
486.027,119.555, 5.6597e-003, 1.4058e-005
487.027,119.876, 5.6741e-003, 1.4574e-005
488.027,120.198, 5.6882e-003, 1.4416e-005
489.027,120.521, 5.7023e-003, 1.4218e-005
490.027,120.842, 5.7165e-003, 1.3578e-005
491.027,121.163, 5.7307e-003, 1.4470e-005
492.027,121.485, 5.7450e-003, 1.4611e-005
493.027,121.809, 5.7591e-003, 1.4218e-005
494.027,122.132, 5.7738e-003, 1.4531e-005
495.027,122.455, 5.7881e-003, 1.4215e-005
496.027,122.78, 5.8018e-003, 1.4065e-005
497.027,123.104, 5.8159e-003, 1.4269e-005
498.027,123.427, 5.8306e-003, 1.4504e-005
499.027,123.751, 5.8445e-003, 1.4081e-005
500.027,124.076, 5.8589e-003, 1.4437e-005
501.027,124.401, 5.8729e-003, 1.3989e-005
502.027,124.726, 5.8873e-003, 1.4302e-005
503.027,125.052, 5.9019e-003, 1.4757e-005
504.027,125.377, 5.9164e-003, 1.4612e-005
505.027,125.703, 5.9308e-003, 1.3908e-005
506.027,126.03, 5.9450e-003, 1.4007e-005
507.027,126.357, 5.9590e-003, 1.4861e-005
508.027,126.684, 5.9733e-003, 1.4671e-005
509.027,127.012, 5.9876e-003, 1.4601e-005
510.027,127.34, 6.0019e-003, 1.4064e-005
511.027,127.667, 6.0160e-003, 1.3985e-005
512.027,127.995, 6.0304e-003, 1.4152e-005
513.027,128.324, 6.0449e-003, 1.3702e-005
514.027,128.653, 6.0589e-003, 1.4029e-005
515.027,128.981, 6.0733e-003, 1.3991e-005
516.027,129.31, 6.0877e-003, 1.4493e-005
517.027,129.639, 6.1024e-003, 1.4388e-005
518.027,129.968, 6.1168e-003, 1.4359e-005
519.027,130.297, 6.1316e-003, 1.4362e-005
520.027,130.627, 6.1458e-003, 1.4392e-005
521.027,130.958, 6.1602e-003, 1.4405e-005
522.027,131.289, 6.1746e-003, 1.4252e-005
523.027,131.621, 6.1890e-003, 1.4606e-005
524.027,131.954, 6.2034e-003, 1.4332e-005
525.027,132.285, 6.2176e-003, 1.4285e-005
526.027,132.615, 6.2319e-003, 1.3426e-005
527.027,132.946, 6.2461e-003, 1.4673e-005
528.027,133.279, 6.2604e-003, 1.5569e-005
529.027,133.611, 6.2748e-003, 1.4481e-005
530.027,133.942, 6.2895e-003, 1.4714e-005
531.027,134.275, 6.3044e-003, 1.4200e-005
532.027,134.608, 6.3187e-003, 1.4369e-005
533.027,134.942, 6.3333e-003, 1.4437e-005
534.027,135.276, 6.3479e-003, 1.5249e-005
535.027,135.61, 6.3628e-003, 1.4703e-005
536.027,135.945, 6.3771e-003, 1.4510e-005
537.027,136.278, 6.3917e-003, 1.4707e-005
538.027,136.613, 6.4063e-003, 1.4775e-005
539.027,136.949, 6.4208e-003, 1.4525e-005
540.027,137.285, 6.4353e-003, 1.4544e-005
541.027,137.62, 6.4499e-003, 1.4724e-005
542.027,137.956, 6.4644e-003, 1.4459e-005
543.027,138.293, 6.4792e-003, 1.4542e-005
544.027,138.629, 6.4938e-003, 1.4777e-005
545.027,138.966, 6.5082e-003, 1.4516e-005
546.027,139.303, 6.5228e-003, 1.4912e-005
547.027,139.64, 6.5379e-003, 1.4925e-005
548.027,139.979, 6.5522e-003, 1.4919e-005
549.027,140.318, 6.5670e-003, 1.4716e-005
550.027,140.656, 6.5816e-003, 1.4115e-005
551.027,140.994, 6.5957e-003, 1.4536e-005
552.027,141.332, 6.6101e-003, 1.4249e-005
553.027,141.671, 6.6248e-003, 1.4719e-005
554.027,142.009, 6.6394e-003, 1.4935e-005
555.027,142.346, 6.6539e-003, 1.4523e-005
556.027,142.684, 6.6684e-003, 1.4977e-005
557.027,143.023, 6.6832e-003, 1.4716e-005
558.027,143.363, 6.6985e-003, 1.5141e-005
559.027,143.706, 6.7138e-003, 1.5117e-005
560.027,144.049, 6.7291e-003, 1.5528e-005
561.027,144.392, 6.7445e-003, 1.5628e-005
562.027,144.738, 6.7603e-003, 1.4746e-005
563.027,145.084, 6.7758e-003, 1.5275e-005
564.027,145.433, 6.7912e-003, 1.4988e-005
565.027,145.782, 6.8062e-003, 1.4956e-005
566.027,146.131, 6.8212e-003, 1.4978e-005
567.027,146.479, 6.8356e-003, 1.4180e-005
568.027,146.825, 6.8500e-003, 1.4030e-005
569.027,147.166, 6.8645e-003, 1.4498e-005
570.027,147.505, 6.8785e-003, 1.4068e-005
571.027,147.841, 6.8924e-003, 1.3719e-005
572.027,148.173, 6.9061e-003, 1.4225e-005
573.027,148.503, 6.9206e-003, 1.4139e-005
574.027,148.833, 6.9345e-003, 1.4238e-005
575.027,149.163, 6.9488e-003, 1.4375e-005
576.027,149.492, 6.9632e-003, 1.4285e-005
577.027,149.823, 6.9773e-003, 1.4215e-005
578.027,150.154, 6.9919e-003, 1.4181e-005
579.027,150.487, 7.0065e-003, 1.4287e-005
580.027,150.82, 7.0209e-003, 1.4652e-005
581.027,151.155, 7.0357e-003, 1.4474e-005
582.027,151.492, 7.0503e-003, 1.4965e-005
583.027,151.829, 7.0652e-003, 1.5026e-005
584.027,152.167, 7.0797e-003, 1.4542e-005
585.027,152.506, 7.0947e-003, 1.4695e-005
586.027,152.846, 7.1096e-003, 1.4898e-005
587.027,153.186, 7.1243e-003, 1.4560e-005
588.027,153.529, 7.1389e-003, 1.4698e-005
589.027,153.881, 7.1544e-003, 1.4909e-005
590.027,154.236, 7.1688e-003, 1.4453e-005
591.027,154.585, 7.1837e-003, 1.4848e-005
592.027,154.93, 7.1987e-003, 1.5092e-005
593.027,155.276, 7.2140e-003, 1.5361e-005
594.027,155.625, 7.2296e-003, 1.5538e-005
595.027,155.978, 7.2451e-003, 1.5855e-005
596.027,156.332, 7.2606e-003, 1.5725e-005
597.027,156.687, 7.2766e-003, 1.5978e-005
598.027,157.044, 7.2926e-003, 1.5737e-005
599.027,157.402, 7.3081e-003, 1.5461e-005
600.027,157.76, 7.3239e-003, 1.5507e-005
601.027,158.118, 7.3392e-003, 1.4820e-005
602.027,158.474, 7.3540e-003, 1.4142e-005
603.027,158.827, 7.3686e-003, 1.4962e-005
604.027,159.173, 7.3831e-003, 1.4694e-005
605.027,159.516, 7.3974e-003, 1.4717e-005
606.027,159.857, 7.4116e-003, 1.4204e-005
607.027,160.195, 7.4257e-003, 1.4275e-005
608.027,160.531, 7.4405e-003, 1.4700e-005
609.027,160.865, 7.4553e-003, 1.4665e-005
610.027,161.2, 7.4693e-003, 1.5265e-005
611.027,161.537, 7.4842e-003, 1.5037e-005
612.027,161.876, 7.4999e-003, 1.5287e-005
613.027,162.218, 7.5147e-003, 1.5184e-005
614.027,162.562, 7.5301e-003, 1.5149e-005
615.027,162.907, 7.5451e-003, 1.5557e-005
616.027,163.253, 7.5608e-003, 1.5394e-005
617.027,163.599, 7.5758e-003, 1.5252e-005
618.027,163.946, 7.5912e-003, 1.4987e-005
619.027,164.294, 7.6065e-003, 1.5051e-005
620.027,164.643, 7.6217e-003, 1.5514e-005
621.027,164.993, 7.6371e-003, 1.5570e-005
622.027,165.344, 7.6526e-003, 1.5013e-005
623.027,165.696, 7.6680e-003, 1.5408e-005
624.027,166.047, 7.6835e-003, 1.5699e-005
625.027,166.399, 7.6987e-003, 1.5391e-005
626.027,166.754, 7.7141e-003, 1.5748e-005
627.027,167.11, 7.7298e-003, 1.6043e-005
628.027,167.464, 7.7456e-003, 1.5874e-005
629.027,167.818, 7.7611e-003, 1.5483e-005
630.027,168.175, 7.7771e-003, 1.5685e-005
631.027,168.531, 7.7926e-003, 1.5821e-005
632.027,168.887, 7.8083e-003, 1.5492e-005
633.027,169.244, 7.8242e-003, 1.5961e-005
634.027,169.601, 7.8397e-003, 1.5509e-005
635.027,169.958, 7.8555e-003, 1.5435e-005
636.027,170.316, 7.8708e-003, 1.5629e-005
637.027,170.674, 7.8867e-003, 1.5631e-005
638.027,171.034, 7.9023e-003, 1.5174e-005
639.027,171.394, 7.9180e-003, 1.5226e-005
640.027,171.754, 7.9337e-003, 1.5605e-005
641.027,172.115, 7.9494e-003, 1.6166e-005
642.027,172.476, 7.9655e-003, 1.6392e-005
643.027,172.837, 7.9817e-003, 1.5792e-005
644.027,173.197, 7.9979e-003, 1.5456e-005
645.027,173.557, 8.0138e-003, 1.5859e-005
646.027,173.918, 8.0288e-003, 1.5391e-005
647.027,174.279, 8.0453e-003, 1.6352e-005
648.027,174.641, 8.0612e-003, 1.5756e-005
649.027,175.003, 8.0768e-003, 1.5772e-005
650.027,175.366, 8.0925e-003, 1.6578e-005
651.027,175.729, 8.1086e-003, 1.5856e-005
652.027,176.092, 8.1248e-003, 1.5695e-005
653.027,176.457, 8.1405e-003, 1.5917e-005
654.027,176.822, 8.1566e-003, 1.6157e-005
655.027,177.186, 8.1726e-003, 1.6109e-005
656.027,177.553, 8.1884e-003, 1.5760e-005
657.027,177.919, 8.2040e-003, 1.6074e-005
658.027,178.283, 8.2202e-003, 1.5749e-005
659.027,178.648, 8.2356e-003, 1.5723e-005
660.027,179.012, 8.2517e-003, 1.5803e-005
661.027,179.375, 8.2679e-003, 1.6264e-005
662.027,179.739, 8.2841e-003, 1.5843e-005
663.027,180.103, 8.2996e-003, 1.5786e-005
664.027,180.468, 8.3157e-003, 1.5411e-005
665.027,180.835, 8.3314e-003, 1.5949e-005
666.027,181.201, 8.3476e-003, 1.6081e-005
667.027,181.568, 8.3636e-003, 1.5754e-005
668.027,181.935, 8.3792e-003, 1.5312e-005
669.027,182.303, 8.3956e-003, 1.6281e-005
670.027,182.673, 8.4116e-003, 1.6600e-005
671.027,183.045, 8.4279e-003, 1.6314e-005
672.027,183.417, 8.4446e-003, 1.7092e-005
673.027,183.791, 8.4612e-003, 1.6687e-005
674.027,184.166, 8.4779e-003, 1.6790e-005
675.027,184.543, 8.4946e-003, 1.6265e-005
676.027,184.92, 8.5109e-003, 1.6718e-005
677.027,185.296, 8.5267e-003, 1.5323e-005
678.027,185.67, 8.5427e-003, 1.5495e-005
679.027,186.039, 8.5585e-003, 1.4809e-005
680.027,186.405, 8.5740e-003, 1.5327e-005
681.027,186.769, 8.5891e-003, 1.5921e-005
682.027,187.132, 8.6045e-003, 1.5814e-005
683.027,187.492, 8.6197e-003, 1.5356e-005
684.027,187.85, 8.6352e-003, 1.5286e-005
685.027,188.208, 8.6507e-003, 1.5909e-005
686.027,188.566, 8.6663e-003, 1.5354e-005
687.027,188.926, 8.6823e-003, 1.5342e-005
688.027,189.286, 8.6978e-003, 1.5543e-005
689.027,189.649, 8.7138e-003, 1.5762e-005
690.027,190.014, 8.7293e-003, 1.5425e-005
691.027,190.379, 8.7450e-003, 1.5450e-005
692.027,190.744, 8.7607e-003, 1.5840e-005
693.027,191.11, 8.7762e-003, 1.5721e-005
694.027,191.477, 8.7917e-003, 1.5069e-005
695.027,191.846, 8.8074e-003, 1.5438e-005
696.027,192.215, 8.8229e-003, 1.6105e-005
697.027,192.585, 8.8386e-003, 1.5982e-005
698.027,192.954, 8.8543e-003, 1.5504e-005
699.027,193.326, 8.8699e-003, 1.5231e-005
700.027,193.701, 8.8851e-003, 1.6391e-005
701.027,194.074, 8.9008e-003, 1.5328e-005
702.027,194.449, 8.9166e-003, 1.4673e-005
703.027,194.827, 8.9321e-003, 1.5774e-005
704.027,195.204, 8.9480e-003, 1.5462e-005
705.027,195.581, 8.9636e-003, 1.5050e-005
706.027,195.959, 8.9792e-003, 1.5616e-005
707.027,196.338, 8.9948e-003, 1.5355e-005
708.027,196.719, 9.0105e-003, 1.5908e-005
709.027,197.101, 9.0263e-003, 1.5332e-005
710.027,197.483, 9.0416e-003, 1.5415e-005
711.027,197.865, 9.0572e-003, 1.5612e-005
712.027,198.248, 9.0724e-003, 1.4742e-005
713.027,198.631, 9.0881e-003, 1.5398e-005
714.027,199.011, 9.1040e-003, 1.5762e-005
715.027,199.392, 9.1193e-003, 1.5097e-005
716.027,199.773, 9.1349e-003, 1.5884e-005
717.027,200.156, 9.1505e-003, 1.5633e-005
718.027,200.538, 9.1658e-003, 1.5262e-005
719.027,200.921, 9.1816e-003, 1.5463e-005
720.027,201.304, 9.1971e-003, 1.5113e-005
721.027,201.686, 9.2126e-003, 1.5404e-005
722.027,202.068, 9.2281e-003, 1.5929e-005
723.027,202.451, 9.2435e-003, 1.4791e-005
724.027,202.836, 9.2587e-003, 1.5397e-005
725.027,203.221, 9.2746e-003, 1.5538e-005
726.027,203.603, 9.2904e-003, 1.5039e-005
727.027,203.983, 9.3054e-003, 1.5278e-005
728.027,204.364, 9.3210e-003, 1.5567e-005
729.027,204.747, 9.3362e-003, 1.5459e-005
730.027,205.13, 9.3518e-003, 1.5777e-005
731.027,205.512, 9.3675e-003, 1.6167e-005
732.027,205.897, 9.3829e-003, 1.5733e-005
733.027,206.281, 9.3985e-003, 1.4970e-005
734.027,206.664, 9.4142e-003, 1.6008e-005
735.027,207.048, 9.4294e-003, 1.5930e-005
736.027,207.431, 9.4448e-003, 1.5392e-005
737.027,207.813, 9.4602e-003, 1.5694e-005
738.027,208.193, 9.4756e-003, 1.5216e-005
739.027,208.574, 9.4913e-003, 1.5993e-005
740.027,208.956, 9.5070e-003, 1.5722e-005
741.027,209.341, 9.5227e-003, 1.5714e-005
742.027,209.73, 9.5389e-003, 1.6228e-005
743.027,210.123, 9.5550e-003, 1.6306e-005
744.027,210.518, 9.5712e-003, 1.6737e-005
745.027,210.914, 9.5874e-003, 1.6329e-005
746.027,211.311, 9.6035e-003, 1.6287e-005
747.027,211.706, 9.6192e-003, 1.6324e-005
748.027,212.097, 9.6350e-003, 1.5742e-005
749.027,212.483, 9.6507e-003, 1.5269e-005
750.027,212.865, 9.6663e-003, 1.5542e-005
751.027,213.243, 9.6814e-003, 1.5034e-005
752.027,213.618, 9.6965e-003, 1.5257e-005
753.027,213.992, 9.7118e-003, 1.5266e-005
754.027,214.364, 9.7271e-003, 1.5213e-005
755.027,214.736, 9.7425e-003, 1.5717e-005
756.027,215.111, 9.7576e-003, 1.5491e-005
757.027,215.484, 9.7735e-003, 1.5794e-005
758.027,215.858, 9.7890e-003, 1.5215e-005
759.027,216.233, 9.8045e-003, 1.5042e-005
760.027,216.608, 9.8200e-003, 1.5464e-005
761.027,216.983, 9.8357e-003, 1.5883e-005
762.027,217.357, 9.8511e-003, 1.5470e-005
763.027,217.732, 9.8668e-003, 1.6025e-005
764.027,218.109, 9.8823e-003, 1.5456e-005
765.027,218.486, 9.8981e-003, 1.5991e-005
766.027,218.866, 9.9142e-003, 1.6028e-005
767.027,219.248, 9.9300e-003, 1.5887e-005
768.027,219.631, 9.9458e-003, 1.5895e-005
769.027,220.013, 9.9617e-003, 1.5469e-005
770.027,220.394, 9.9775e-003, 1.5915e-005
771.027,220.776, 9.9935e-003, 1.5836e-005
772.027,221.159, 1.0009e-002, 1.5588e-005
773.027,221.542, 1.0025e-002, 1.6617e-005
774.027,221.924, 1.0041e-002, 1.5348e-005
775.027,222.306, 1.0057e-002, 1.5607e-005
776.027,222.688, 1.0073e-002, 1.5398e-005
777.027,223.072, 1.0089e-002, 1.5039e-005
778.027,223.457, 1.0105e-002, 1.5515e-005
779.027,223.844, 1.0121e-002, 1.6289e-005
780.027,224.23, 1.0137e-002, 1.5990e-005
781.027,224.618, 1.0153e-002, 1.6214e-005
782.027,225.008, 1.0169e-002, 1.6198e-005
783.027,225.394, 1.0184e-002, 1.5726e-005
784.027,225.781, 1.0200e-002, 1.5443e-005
785.027,226.169, 1.0216e-002, 1.5554e-005
786.027,226.558, 1.0232e-002, 1.6081e-005
787.027,226.944, 1.0249e-002, 1.6448e-005
788.027,227.329, 1.0265e-002, 1.6778e-005
789.027,227.718, 1.0281e-002, 1.6034e-005
790.027,228.108, 1.0297e-002, 1.6025e-005
791.027,228.498, 1.0313e-002, 1.5765e-005
792.027,228.889, 1.0329e-002, 1.5596e-005
793.027,229.284, 1.0346e-002, 1.5680e-005
794.027,229.681, 1.0362e-002, 1.6052e-005
795.027,230.079, 1.0378e-002, 1.5902e-005
796.027,230.477, 1.0394e-002, 1.5915e-005
797.027,230.874, 1.0411e-002, 1.6282e-005
798.027,231.269, 1.0427e-002, 1.6495e-005
799.027,231.666, 1.0443e-002, 1.6565e-005
800.027,232.066, 1.0460e-002, 1.6522e-005
801.027,232.471, 1.0476e-002, 1.6424e-005
802.027,232.885, 1.0493e-002, 1.7297e-005
803.027,233.309, 1.0510e-002, 1.7111e-005
804.027,233.731, 1.0527e-002, 1.6340e-005
805.027,234.15, 1.0544e-002, 1.6349e-005
806.027,234.566, 1.0560e-002, 1.6050e-005
807.027,234.976, 1.0577e-002, 1.5921e-005
808.027,235.383, 1.0593e-002, 1.6145e-005
809.027,235.79, 1.0610e-002, 1.7232e-005
810.027,236.197, 1.0627e-002, 1.6278e-005
811.027,236.605, 1.0644e-002, 1.6696e-005
812.027,237.013, 1.0660e-002, 1.7372e-005
813.027,237.421, 1.0676e-002, 1.7051e-005
814.027,237.825, 1.0693e-002, 1.5969e-005
815.027,238.224, 1.0709e-002, 1.6317e-005
816.027,238.62, 1.0725e-002, 1.6158e-005
817.027,239.013, 1.0741e-002, 1.6512e-005
818.027,239.403, 1.0758e-002, 1.6141e-005
819.027,239.791, 1.0774e-002, 1.6115e-005
820.027,240.181, 1.0790e-002, 1.6956e-005
821.027,240.569, 1.0807e-002, 1.6398e-005
822.027,240.959, 1.0823e-002, 1.6482e-005
823.027,241.351, 1.0840e-002, 1.6595e-005
824.027,241.743, 1.0857e-002, 1.6399e-005
825.027,242.136, 1.0874e-002, 1.6619e-005
826.027,242.528, 1.0890e-002, 1.6863e-005
827.027,242.92, 1.0906e-002, 1.6507e-005
828.027,243.313, 1.0923e-002, 1.6294e-005
829.027,243.705, 1.0940e-002, 1.6639e-005
830.027,244.097, 1.0957e-002, 1.6360e-005
831.027,244.488, 1.0973e-002, 1.7538e-005
832.027,244.877, 1.0991e-002, 1.7007e-005
833.027,245.268, 1.1007e-002, 1.6771e-005
834.027,245.659, 1.1024e-002, 1.7146e-005
835.027,246.05, 1.1041e-002, 1.7359e-005
836.027,246.444, 1.1058e-002, 1.7404e-005
837.027,246.839, 1.1076e-002, 1.7590e-005
838.027,247.235, 1.1093e-002, 1.7759e-005
839.027,247.631, 1.1110e-002, 1.7161e-005
840.027,248.028, 1.1127e-002, 1.6830e-005
841.027,248.424, 1.1145e-002, 1.7702e-005
842.027,248.82, 1.1162e-002, 1.7177e-005
843.027,249.216, 1.1179e-002, 1.7998e-005
844.027,249.612, 1.1198e-002, 1.7638e-005
845.027,250.007, 1.1215e-002, 1.7939e-005
846.027,250.4, 1.1233e-002, 1.8093e-005
847.027,250.792, 1.1251e-002, 1.8483e-005
848.027,251.181, 1.1270e-002, 1.8240e-005
849.027,251.569, 1.1288e-002, 1.9403e-005
850.027,251.957, 1.1307e-002, 1.8714e-005
851.027,252.346, 1.1327e-002, 1.9051e-005
852.027,252.735, 1.1346e-002, 1.9583e-005
853.027,253.123, 1.1366e-002, 1.9952e-005
854.027,253.512, 1.1385e-002, 1.9935e-005
855.027,253.899, 1.1405e-002, 1.9154e-005
856.027,254.284, 1.1425e-002, 2.0571e-005
857.027,254.673, 1.1445e-002, 2.0137e-005
858.027,255.062, 1.1466e-002, 2.0873e-005
859.027,255.448, 1.1486e-002, 2.0418e-005
860.027,255.835, 1.1507e-002, 2.2327e-005
861.027,256.225, 1.1529e-002, 2.1836e-005
862.027,256.615, 1.1551e-002, 2.1981e-005
863.027,257.004, 1.1573e-002, 2.2895e-005
864.027,257.394, 1.1595e-002, 2.1715e-005
865.027,257.79, 1.1618e-002, 2.2379e-005
866.027,258.187, 1.1641e-002, 2.3020e-005
867.027,258.586, 1.1664e-002, 2.2602e-005
868.027,258.984, 1.1687e-002, 2.2217e-005
869.027,259.379, 1.1709e-002, 2.2085e-005
870.027,259.769, 1.1731e-002, 2.2026e-005
871.027,260.156, 1.1753e-002, 2.2262e-005
872.027,260.54, 1.1775e-002, 2.2033e-005
873.027,260.921, 1.1797e-002, 2.1772e-005
874.027,261.301, 1.1819e-002, 2.1769e-005
875.027,261.681, 1.1841e-002, 2.1703e-005
876.027,262.059, 1.1863e-002, 2.1700e-005
877.027,262.436, 1.1885e-002, 2.2140e-005
878.027,262.813, 1.1907e-002, 2.2944e-005
879.027,263.19, 1.1930e-002, 2.3483e-005
880.027,263.567, 1.1952e-002, 2.2981e-005
881.027,263.941, 1.1975e-002, 2.2289e-005
882.027,264.315, 1.1998e-002, 2.3649e-005
883.027,264.691, 1.2022e-002, 2.3283e-005
884.027,265.068, 1.2045e-002, 2.4331e-005
885.027,265.446, 1.2069e-002, 2.4215e-005
886.027,265.824, 1.2093e-002, 2.4471e-005
887.027,266.202, 1.2118e-002, 2.4273e-005
888.027,266.579, 1.2143e-002, 2.4669e-005
889.027,266.956, 1.2168e-002, 2.6478e-005
890.027,267.336, 1.2195e-002, 2.6624e-005
891.027,267.717, 1.2222e-002, 2.6957e-005
892.027,268.097, 1.2248e-002, 2.7407e-005
893.027,268.476, 1.2276e-002, 2.8151e-005
894.027,268.856, 1.2305e-002, 2.9234e-005
895.027,269.236, 1.2334e-002, 2.8973e-005
896.027,269.614, 1.2363e-002, 2.9430e-005
897.027,269.99, 1.2394e-002, 3.0461e-005
898.027,270.368, 1.2426e-002, 3.2827e-005
899.027,270.747, 1.2459e-002, 3.4015e-005
900.027,271.126, 1.2494e-002, 3.5976e-005
901.027,271.505, 1.2531e-002, 3.8363e-005
902.027,271.887, 1.2569e-002, 3.9942e-005
903.027,272.267, 1.2609e-002, 3.9991e-005
904.027,272.646, 1.2651e-002, 4.3259e-005
905.027,273.027, 1.2694e-002, 4.4800e-005
906.027,273.407, 1.2739e-002, 4.6364e-005
907.027,273.789, 1.2787e-002, 4.8923e-005
908.027,274.174, 1.2838e-002, 5.1537e-005
909.027,274.558, 1.2889e-002, 5.0700e-005
910.027,274.94, 1.2942e-002, 5.5191e-005
911.027,275.322, 1.2998e-002, 5.7229e-005
912.027,275.703, 1.3057e-002, 5.8995e-005
913.027,276.086, 1.3117e-002, 6.1408e-005
914.027,276.471, 1.3180e-002, 6.5691e-005
915.027,276.854, 1.3247e-002, 6.7299e-005
916.027,277.238, 1.3316e-002, 7.1012e-005
917.027,277.626, 1.3387e-002, 7.0951e-005
918.027,278.019, 1.3459e-002, 7.3578e-005
919.027,278.417, 1.3533e-002, 7.5287e-005
920.027,278.819, 1.3609e-002, 7.7441e-005
921.027,279.222, 1.3687e-002, 8.0625e-005
922.027,279.628, 1.3763e-002, 7.8232e-005
923.027,280.034, 1.3843e-002, 8.1901e-005
924.027,280.44, 1.3926e-002, 8.4172e-005
925.027,280.844, 1.4007e-002, 8.3562e-005
926.027,281.243, 1.4092e-002, 8.6339e-005
927.027,281.641, 1.4179e-002, 8.8494e-005
928.027,282.039, 1.4270e-002, 8.9892e-005
929.027,282.439, 1.4363e-002, 9.6213e-005
930.027,282.843, 1.4458e-002, 9.8166e-005
931.027,283.25, 1.4555e-002, 9.4962e-005
932.027,283.663, 1.4652e-002, 9.9975e-005
933.027,284.081, 1.4754e-002, 1.0214e-004
934.027,284.51, 1.4860e-002, 1.0528e-004
935.027,284.953, 1.4973e-002, 1.1528e-004
936.027,285.421, 1.5094e-002, 1.2275e-004
937.027,285.937, 1.5229e-002, 1.4884e-004
938.027,286.55, 1.5390e-002, 1.8024e-004
939.027,287.142, 1.5541e-002, 1.2391e-004
940.027,287.589, 1.5655e-002, 1.0761e-004
941.027,287.979, 1.5764e-002, 1.0611e-004
942.027,288.361, 1.5875e-002, 1.1380e-004
943.027,288.766, 1.5993e-002, 1.2740e-004
944.027,289.193, 1.6124e-002, 1.3295e-004
945.027,289.623, 1.6252e-002, 1.2467e-004
946.027,290.045, 1.6374e-002, 1.2018e-004