File: data/14.1mm-083019/byto000sCr1-14.6mm-091119.csv
#EXPORTTYPE:           ,DATA ALL
#FILE:                 ,bytownCrun1.ngb-sle
#FORMAT:               ,NETZSCH5
#FTYPE:                ,ANSI
#IDENTITY:             ,bytwonite C
#DECIMAL:              ,POINT
#SEPARATOR:            ,COMMA
#MTYPE:                ,DIL
#INSTRUMENT:           ,NETZSCH DIL 402C
#PROJECT:              ,feldspar
#DATE/TIME:            ,9/11/2019 9:46:40 AM (UTC-5)
#CORR. FILE:           ,
#TEMPCAL:              ,TCALZERO.TMX
#LABORATORY:           ,Mineral Physics
#OPERATOR:             ,PAG
#REMARK:               ,bare, norm start, for bytown and rocks bytownite fat rect x-section
#SAMPLE:               ,fmb-C
#SAMPLE LENGTH /mm:    ,14.583
#MATERIAL:             ,sapphire stnd
#MEASMODE:             ,Standard Expansion
#PURGE GAS 1:          ,ARGON
#FLOW RATE 1 /(ml/min):,75
#M.RANGE /µm:          ,500
#CORR. CODE:           ,010
#RANGE:                ,20.0°C/3.0(K/min)/1206.0°C/25.0(K/min)/900.0°C/
#SEGMENT:              ,S1-2/2
#SEG. 1:               ,20.0°C/3.0(K/min)/1206.0°C
#SEG. 2:               ,1206.0°C/25.0(K/min)/900.0°C

##Temp./°C,Time/min,dL/Lo,Segment
  21.53000,  0.00000, 1.5187e-005,1
  21.56000,  0.28167, 1.6464e-005,1
  21.57600,  0.56333, 1.7067e-005,1
  21.58300,  0.84500, 1.6620e-005,1
  21.58700,  1.12667, 1.6494e-005,1
  21.57700,  1.40833, 1.5454e-005,1
  21.58700,  1.69000, 1.5054e-005,1
  21.59000,  1.97167, 1.4364e-005,1
  21.59200,  2.25333, 1.3530e-005,1
  21.59000,  2.53500, 1.2547e-005,1
  21.59100,  2.81667, 1.1937e-005,1
  21.59300,  3.09833, 1.0914e-005,1
  21.61500,  3.38000, 9.7940e-006,1
  21.69700,  3.66167, 8.0055e-006,1
  21.86500,  3.94333, 5.4085e-006,1
  22.13000,  4.22500, 1.8933e-006,1
  22.51700,  4.50667,-2.6782e-006,1
  23.03100,  4.78833,-7.9183e-006,1
  23.69600,  5.07000,-1.3183e-005,1
  24.49600,  5.35167,-1.8620e-005,1
  25.42700,  5.63333,-2.4033e-005,1
  26.48300,  5.91500,-2.8778e-005,1
  27.61500,  6.19667,-3.2125e-005,1
  28.83900,  6.47833,-3.4798e-005,1
  30.11800,  6.76000,-3.5886e-005,1
  31.42100,  7.04167,-3.5965e-005,1
  32.77500,  7.32333,-3.4051e-005,1
  34.15200,  7.60500,-3.1948e-005,1
  35.52700,  7.88667,-2.8748e-005,1
  36.90000,  8.16833,-2.4716e-005,1
  38.28500,  8.45000,-1.9453e-005,1
  39.66800,  8.73167,-1.4010e-005,1
  41.05500,  9.01333,-7.8570e-006,1
  42.43900,  9.29500,-1.0357e-006,1
  43.82900,  9.57667, 6.2097e-006,1
  45.23100,  9.85833, 1.4257e-005,1
  46.65600, 10.14000, 2.2704e-005,1
  48.08400, 10.42167, 3.1664e-005,1
  49.53000, 10.70333, 4.1040e-005,1
  51.01000, 10.98500, 5.1066e-005,1
  52.48300, 11.26667, 6.0794e-005,1
  53.97200, 11.54833, 7.1412e-005,1
  55.47400, 11.83000, 8.2040e-005,1
  56.97400, 12.11167, 9.3110e-005,1
  58.47500, 12.39333, 1.0428e-004,1
  59.98400, 12.67500, 1.1608e-004,1
  61.49800, 12.95667, 1.2779e-004,1
  63.00200, 13.23833, 1.4007e-004,1
  64.52700, 13.52000, 1.5275e-004,1
  66.03000, 13.80167, 1.6546e-004,1
  67.55000, 14.08333, 1.7869e-004,1
  69.05000, 14.36500, 1.9224e-004,1
  70.56000, 14.64667, 2.0553e-004,1
  72.05700, 14.92833, 2.1898e-004,1
  73.56100, 15.21000, 2.3316e-004,1
  75.04900, 15.49167, 2.4713e-004,1
  76.55600, 15.77333, 2.6144e-004,1
  78.05300, 16.05500, 2.7567e-004,1
  79.54500, 16.33667, 2.8995e-004,1
  81.03200, 16.61833, 3.0431e-004,1
  82.51000, 16.90000, 3.1875e-004,1
  83.99400, 17.18167, 3.3339e-004,1
  85.46300, 17.46333, 3.4778e-004,1
  86.89900, 17.74500, 3.6208e-004,1
  88.36100, 18.02667, 3.7683e-004,1
  89.82900, 18.30833, 3.9158e-004,1
  91.28600, 18.59000, 4.0627e-004,1
  92.73100, 18.87167, 4.2091e-004,1
  94.17100, 19.15333, 4.3585e-004,1
  95.62600, 19.43500, 4.5051e-004,1
  97.04900, 19.71667, 4.6561e-004,1
  98.47400, 19.99833, 4.8028e-004,1
  99.89800, 20.28000, 4.9506e-004,1
 101.307, 20.56167, 5.0985e-004,1
 102.709, 20.84333, 5.2467e-004,1
 104.116, 21.12500, 5.3952e-004,1
 105.533, 21.40667, 5.5426e-004,1
 106.926, 21.68833, 5.6917e-004,1
 108.331, 21.97000, 5.8354e-004,1
 109.736, 22.25167, 5.9863e-004,1
 111.141, 22.53333, 6.1365e-004,1
 112.523, 22.81500, 6.2811e-004,1
 113.914, 23.09667, 6.4317e-004,1
 115.3, 23.37833, 6.5779e-004,1
 116.699, 23.66000, 6.7250e-004,1
 118.08, 23.94167, 6.8712e-004,1
 119.465, 24.22333, 7.0176e-004,1
 120.838, 24.50500, 7.1633e-004,1
 122.21, 24.78667, 7.3099e-004,1
 123.579, 25.06833, 7.4560e-004,1
 124.957, 25.35000, 7.6026e-004,1
 126.323, 25.63167, 7.7510e-004,1
 127.709, 25.91333, 7.8969e-004,1
 129.072, 26.19500, 8.0426e-004,1
 130.426, 26.47667, 8.1863e-004,1
 131.783, 26.75833, 8.3352e-004,1
 133.131, 27.04000, 8.4794e-004,1
 134.444, 27.32167, 8.6233e-004,1
 135.783, 27.60333, 8.7688e-004,1
 137.116, 27.88500, 8.9128e-004,1
 138.456, 28.16667, 9.0594e-004,1
 139.8, 28.44833, 9.2007e-004,1
 141.134, 28.73000, 9.3453e-004,1
 142.467, 29.01167, 9.4922e-004,1
 143.797, 29.29333, 9.6362e-004,1
 145.136, 29.57500, 9.7815e-004,1
 146.468, 29.85667, 9.9248e-004,1
 147.796, 30.13833, 1.0070e-003,1
 149.128, 30.42000, 1.0213e-003,1
 150.431, 30.70167, 1.0354e-003,1
 151.762, 30.98333, 1.0500e-003,1
 153.067, 31.26500, 1.0640e-003,1
 154.388, 31.54667, 1.0784e-003,1
 155.713, 31.82833, 1.0929e-003,1
 157.021, 32.11000, 1.1070e-003,1
 158.322, 32.39167, 1.1214e-003,1
 159.631, 32.67333, 1.1357e-003,1
 160.94, 32.95500, 1.1501e-003,1
 162.246, 33.23667, 1.1642e-003,1
 163.547, 33.51833, 1.1783e-003,1
 164.841, 33.80000, 1.1928e-003,1
 166.141, 34.08167, 1.2068e-003,1
 167.437, 34.36333, 1.2212e-003,1
 168.72, 34.64500, 1.2351e-003,1
 170.01, 34.92667, 1.2489e-003,1
 171.293, 35.20833, 1.2631e-003,1
 172.583, 35.49000, 1.2774e-003,1
 173.863, 35.77167, 1.2912e-003,1
 175.137, 36.05333, 1.3055e-003,1
 176.417, 36.33500, 1.3195e-003,1
 177.691, 36.61667, 1.3337e-003,1
 178.957, 36.89833, 1.3475e-003,1
 180.242, 37.18000, 1.3617e-003,1
 181.519, 37.46167, 1.3756e-003,1
 182.784, 37.74333, 1.3897e-003,1
 184.051, 38.02500, 1.4036e-003,1
 185.325, 38.30667, 1.4176e-003,1
 186.591, 38.58833, 1.4316e-003,1
 187.854, 38.87000, 1.4452e-003,1
 189.096, 39.15167, 1.4596e-003,1
 190.37, 39.43333, 1.4734e-003,1
 191.633, 39.71500, 1.4875e-003,1
 192.899, 39.99667, 1.5013e-003,1
 194.152, 40.27833, 1.5151e-003,1
 195.386, 40.56000, 1.5289e-003,1
 196.646, 40.84167, 1.5428e-003,1
 197.898, 41.12333, 1.5563e-003,1
 199.139, 41.40500, 1.5702e-003,1
 200.382, 41.68667, 1.5840e-003,1
 201.628, 41.96833, 1.5981e-003,1
 202.862, 42.25000, 1.6113e-003,1
 204.099, 42.53167, 1.6252e-003,1
 205.335, 42.81333, 1.6387e-003,1
 206.565, 43.09500, 1.6523e-003,1
 207.809, 43.37667, 1.6661e-003,1
 209.035, 43.65833, 1.6797e-003,1
 210.261, 43.94000, 1.6932e-003,1
 211.481, 44.22167, 1.7068e-003,1
 212.704, 44.50333, 1.7201e-003,1
 213.933, 44.78500, 1.7340e-003,1
 215.157, 45.06667, 1.7477e-003,1
 216.386, 45.34833, 1.7611e-003,1
 217.596, 45.63000, 1.7746e-003,1
 218.802, 45.91167, 1.7876e-003,1
 220.014, 46.19333, 1.8011e-003,1
 221.226, 46.47500, 1.8146e-003,1
 222.427, 46.75667, 1.8278e-003,1
 223.641, 47.03833, 1.8412e-003,1
 224.842, 47.32000, 1.8548e-003,1
 226.045, 47.60167, 1.8679e-003,1
 227.251, 47.88333, 1.8813e-003,1
 228.454, 48.16500, 1.8949e-003,1
 229.652, 48.44667, 1.9077e-003,1
 230.846, 48.72833, 1.9212e-003,1
 232.043, 49.01000, 1.9347e-003,1
 233.236, 49.29167, 1.9482e-003,1
 234.417, 49.57333, 1.9611e-003,1
 235.605, 49.85500, 1.9744e-003,1
 236.798, 50.13667, 1.9878e-003,1
 237.979, 50.41833, 2.0009e-003,1
 239.167, 50.70000, 2.0141e-003,1
 240.329, 50.98167, 2.0272e-003,1
 241.518, 51.26333, 2.0407e-003,1
 242.7, 51.54500, 2.0535e-003,1
 243.867, 51.82667, 2.0667e-003,1
 245.04, 52.10833, 2.0799e-003,1
 246.202, 52.39000, 2.0928e-003,1
 247.37, 52.67167, 2.1053e-003,1
 248.542, 52.95333, 2.1186e-003,1
 249.711, 53.23500, 2.1306e-003,1
 250.887, 53.51667, 2.1436e-003,1
 252.05, 53.79833, 2.1564e-003,1
 253.211, 54.08000, 2.1693e-003,1
 254.369, 54.36167, 2.1822e-003,1
 255.534, 54.64333, 2.1953e-003,1
 256.692, 54.92500, 2.2083e-003,1
 257.836, 55.20667, 2.2212e-003,1
 258.993, 55.48833, 2.2338e-003,1
 260.143, 55.77000, 2.2464e-003,1
 261.297, 56.05167, 2.2593e-003,1
 262.438, 56.33333, 2.2720e-003,1
 263.582, 56.61500, 2.2848e-003,1
 264.717, 56.89667, 2.2975e-003,1
 265.861, 57.17833, 2.3102e-003,1
 267.009, 57.46000, 2.3230e-003,1
 268.142, 57.74167, 2.3355e-003,1
 269.28, 58.02333, 2.3480e-003,1
 270.401, 58.30500, 2.3605e-003,1
 271.529, 58.58667, 2.3730e-003,1
 272.672, 58.86833, 2.3856e-003,1
 273.798, 59.15000, 2.3980e-003,1
 274.925, 59.43167, 2.4109e-003,1
 276.06, 59.71333, 2.4237e-003,1
 277.184, 59.99500, 2.4359e-003,1
 278.302, 60.27667, 2.4484e-003,1
 279.424, 60.55833, 2.4609e-003,1
 280.546, 60.84000, 2.4732e-003,1
 281.658, 61.12167, 2.4855e-003,1
 282.763, 61.40333, 2.4979e-003,1
 283.872, 61.68500, 2.5104e-003,1
 284.983, 61.96667, 2.5226e-003,1
 286.088, 62.24833, 2.5349e-003,1
 287.2, 62.53000, 2.5474e-003,1
 288.307, 62.81167, 2.5599e-003,1
 289.417, 63.09333, 2.5722e-003,1
 290.526, 63.37500, 2.5845e-003,1
 291.626, 63.65667, 2.5967e-003,1
 292.717, 63.93833, 2.6089e-003,1
 293.813, 64.22000, 2.6211e-003,1
 294.922, 64.50167, 2.6335e-003,1
 296, 64.78333, 2.6454e-003,1
 297.095, 65.06500, 2.6579e-003,1
 298.187, 65.34667, 2.6698e-003,1
 299.269, 65.62833, 2.6821e-003,1
 300.357, 65.91000, 2.6942e-003,1
 301.448, 66.19167, 2.7061e-003,1
 302.541, 66.47333, 2.7181e-003,1
 303.626, 66.75500, 2.7305e-003,1
 304.711, 67.03667, 2.7424e-003,1
 305.788, 67.31833, 2.7543e-003,1
 306.867, 67.60000, 2.7663e-003,1
 307.942, 67.88167, 2.7777e-003,1
 309.016, 68.16333, 2.7897e-003,1
 310.089, 68.44500, 2.8017e-003,1
 311.161, 68.72667, 2.8137e-003,1
 312.243, 69.00833, 2.8260e-003,1
 313.314, 69.29000, 2.8373e-003,1
 314.382, 69.57167, 2.8494e-003,1
 315.448, 69.85333, 2.8611e-003,1
 316.51, 70.13500, 2.8731e-003,1
 317.579, 70.41667, 2.8850e-003,1
 318.641, 70.69833, 2.8967e-003,1
 319.706, 70.98000, 2.9085e-003,1
 320.76, 71.26167, 2.9205e-003,1
 321.823, 71.54333, 2.9324e-003,1
 322.875, 71.82500, 2.9442e-003,1
 323.931, 72.10667, 2.9564e-003,1
 324.983, 72.38833, 2.9681e-003,1
 326.029, 72.67000, 2.9803e-003,1
 327.084, 72.95167, 2.9927e-003,1
 328.119, 73.23333, 3.0047e-003,1
 329.164, 73.51500, 3.0170e-003,1
 330.2, 73.79667, 3.0294e-003,1
 331.23, 74.07833, 3.0413e-003,1
 332.252, 74.36000, 3.0532e-003,1
 333.284, 74.64167, 3.0647e-003,1
 334.315, 74.92333, 3.0764e-003,1
 335.344, 75.20500, 3.0876e-003,1
 336.375, 75.48667, 3.0988e-003,1
 337.419, 75.76833, 3.1102e-003,1
 338.477, 76.05000, 3.1213e-003,1
 339.54, 76.33167, 3.1323e-003,1
 340.607, 76.61333, 3.1433e-003,1
 341.676, 76.89500, 3.1543e-003,1
 342.753, 77.17667, 3.1652e-003,1
 343.825, 77.45833, 3.1763e-003,1
 344.907, 77.74000, 3.1880e-003,1
 345.993, 78.02167, 3.1993e-003,1
 347.066, 78.30333, 3.2109e-003,1
 348.136, 78.58500, 3.2222e-003,1
 349.212, 78.86667, 3.2340e-003,1
 350.282, 79.14833, 3.2456e-003,1
 351.339, 79.43000, 3.2570e-003,1
 352.392, 79.71167, 3.2688e-003,1
 353.449, 79.99333, 3.2802e-003,1
 354.495, 80.27500, 3.2917e-003,1
 355.548, 80.55667, 3.3033e-003,1
 356.592, 80.83833, 3.3147e-003,1
 357.63, 81.12000, 3.3260e-003,1
 358.667, 81.40167, 3.3370e-003,1
 359.69, 81.68333, 3.3489e-003,1
 360.73, 81.96500, 3.3599e-003,1
 361.753, 82.24667, 3.3713e-003,1
 362.772, 82.52833, 3.3829e-003,1
 363.793, 82.81000, 3.3939e-003,1
 364.812, 83.09167, 3.4051e-003,1
 365.824, 83.37333, 3.4166e-003,1
 366.821, 83.65500, 3.4276e-003,1
 367.828, 83.93667, 3.4389e-003,1
 368.84, 84.21833, 3.4501e-003,1
 369.85, 84.50000, 3.4612e-003,1
 370.853, 84.78167, 3.4726e-003,1
 371.851, 85.06333, 3.4832e-003,1
 372.846, 85.34500, 3.4943e-003,1
 373.837, 85.62667, 3.5055e-003,1
 374.831, 85.90833, 3.5164e-003,1
 375.827, 86.19000, 3.5275e-003,1
 376.814, 86.47167, 3.5384e-003,1
 377.797, 86.75333, 3.5497e-003,1
 378.787, 87.03500, 3.5602e-003,1
 379.772, 87.31667, 3.5713e-003,1
 380.755, 87.59833, 3.5823e-003,1
 381.721, 87.88000, 3.5932e-003,1
 382.707, 88.16167, 3.6040e-003,1
 383.685, 88.44333, 3.6148e-003,1
 384.664, 88.72500, 3.6257e-003,1
 385.634, 89.00667, 3.6365e-003,1
 386.604, 89.28833, 3.6471e-003,1
 387.576, 89.57000, 3.6579e-003,1
 388.545, 89.85167, 3.6687e-003,1
 389.532, 90.13333, 3.6794e-003,1
 390.503, 90.41500, 3.6900e-003,1
 391.468, 90.69667, 3.7010e-003,1
 392.436, 90.97833, 3.7119e-003,1
 393.407, 91.26000, 3.7225e-003,1
 394.367, 91.54167, 3.7328e-003,1
 395.327, 91.82333, 3.7437e-003,1
 396.296, 92.10500, 3.7544e-003,1
 397.258, 92.38667, 3.7652e-003,1
 398.229, 92.66833, 3.7756e-003,1
 399.184, 92.95000, 3.7861e-003,1
 400.146, 93.23167, 3.7966e-003,1
 401.092, 93.51333, 3.8073e-003,1
 402.057, 93.79500, 3.8178e-003,1
 403.02, 94.07667, 3.8285e-003,1
 403.977, 94.35833, 3.8389e-003,1
 404.933, 94.64000, 3.8495e-003,1
 405.883, 94.92167, 3.8598e-003,1
 406.839, 95.20333, 3.8703e-003,1
 407.781, 95.48500, 3.8808e-003,1
 408.734, 95.76667, 3.8910e-003,1
 409.679, 96.04833, 3.9013e-003,1
 410.637, 96.33000, 3.9118e-003,1
 411.586, 96.61167, 3.9225e-003,1
 412.528, 96.89333, 3.9328e-003,1
 413.472, 97.17500, 3.9430e-003,1
 414.413, 97.45667, 3.9534e-003,1
 415.364, 97.73833, 3.9638e-003,1
 416.298, 98.02000, 3.9739e-003,1
 417.248, 98.30167, 3.9845e-003,1
 418.178, 98.58333, 3.9941e-003,1
 419.121, 98.86500, 4.0044e-003,1
 420.055, 99.14667, 4.0146e-003,1
 420.999, 99.42833, 4.0251e-003,1
 421.937, 99.71000, 4.0354e-003,1
 422.876, 99.99167, 4.0454e-003,1
 423.817,100.273, 4.0557e-003,1
 424.742,100.555, 4.0660e-003,1
 425.679,100.837, 4.0764e-003,1
 426.614,101.118, 4.0865e-003,1
 427.54,101.4, 4.0970e-003,1
 428.474,101.682, 4.1069e-003,1
 429.404,101.963, 4.1170e-003,1
 430.336,102.245, 4.1272e-003,1
 431.261,102.527, 4.1373e-003,1
 432.183,102.808, 4.1472e-003,1
 433.114,103.09, 4.1579e-003,1
 434.047,103.372, 4.1679e-003,1
 434.972,103.653, 4.1781e-003,1
 435.896,103.935, 4.1882e-003,1
 436.819,104.217, 4.1980e-003,1
 437.74,104.498, 4.2083e-003,1
 438.668,104.78, 4.2183e-003,1
 439.59,105.062, 4.2284e-003,1
 440.505,105.343, 4.2385e-003,1
 441.42,105.625, 4.2485e-003,1
 442.336,105.907, 4.2586e-003,1
 443.263,106.188, 4.2688e-003,1
 444.166,106.47, 4.2788e-003,1
 445.084,106.752, 4.2888e-003,1
 445.993,107.033, 4.2989e-003,1
 446.91,107.315, 4.3090e-003,1
 447.815,107.597, 4.3190e-003,1
 448.726,107.878, 4.3293e-003,1
 449.634,108.16, 4.3391e-003,1
 450.546,108.442, 4.3491e-003,1
 451.457,108.723, 4.3589e-003,1
 452.365,109.005, 4.3688e-003,1
 453.273,109.287, 4.3788e-003,1
 454.178,109.568, 4.3888e-003,1
 455.082,109.85, 4.3985e-003,1
 455.987,110.132, 4.4085e-003,1
 456.886,110.413, 4.4180e-003,1
 457.793,110.695, 4.4280e-003,1
 458.693,110.977, 4.4379e-003,1
 459.587,111.258, 4.4475e-003,1
 460.487,111.54, 4.4577e-003,1
 461.386,111.822, 4.4675e-003,1
 462.283,112.103, 4.4775e-003,1
 463.178,112.385, 4.4873e-003,1
 464.069,112.667, 4.4973e-003,1
 464.965,112.948, 4.5065e-003,1
 465.864,113.23, 4.5164e-003,1
 466.767,113.512, 4.5266e-003,1
 467.663,113.793, 4.5364e-003,1
 468.559,114.075, 4.5459e-003,1
 469.449,114.357, 4.5556e-003,1
 470.348,114.638, 4.5655e-003,1
 471.239,114.92, 4.5750e-003,1
 472.127,115.202, 4.5850e-003,1
 473.015,115.483, 4.5949e-003,1
 473.906,115.765, 4.6046e-003,1
 474.79,116.047, 4.6143e-003,1
 475.673,116.328, 4.6239e-003,1
 476.554,116.61, 4.6334e-003,1
 477.434,116.892, 4.6433e-003,1
 478.321,117.173, 4.6530e-003,1
 479.208,117.455, 4.6627e-003,1
 480.087,117.737, 4.6725e-003,1
 480.972,118.018, 4.6819e-003,1
 481.853,118.3, 4.6919e-003,1
 482.737,118.582, 4.7014e-003,1
 483.614,118.863, 4.7110e-003,1
 484.499,119.145, 4.7208e-003,1
 485.369,119.427, 4.7302e-003,1
 486.252,119.708, 4.7400e-003,1
 487.126,119.99, 4.7500e-003,1
 488.005,120.272, 4.7600e-003,1
 488.876,120.553, 4.7699e-003,1
 489.742,120.835, 4.7798e-003,1
 490.616,121.117, 4.7900e-003,1
 491.482,121.398, 4.8001e-003,1
 492.333,121.68, 4.8100e-003,1
 493.186,121.962, 4.8200e-003,1
 494.042,122.243, 4.8300e-003,1
 494.888,122.525, 4.8396e-003,1
 495.756,122.807, 4.8495e-003,1
 496.613,123.088, 4.8585e-003,1
 497.482,123.37, 4.8678e-003,1
 498.353,123.652, 4.8772e-003,1
 499.236,123.933, 4.8863e-003,1
 500.124,124.215, 4.8956e-003,1
 501.013,124.497, 4.9047e-003,1
 501.916,124.778, 4.9139e-003,1
 502.818,125.06, 4.9235e-003,1
 503.722,125.342, 4.9329e-003,1
 504.63,125.623, 4.9424e-003,1
 505.522,125.905, 4.9520e-003,1
 506.421,126.187, 4.9618e-003,1
 507.326,126.468, 4.9718e-003,1
 508.211,126.75, 4.9813e-003,1
 509.092,127.032, 4.9907e-003,1
 509.976,127.313, 5.0002e-003,1
 510.853,127.595, 5.0097e-003,1
 511.732,127.877, 5.0194e-003,1
 512.619,128.158, 5.0289e-003,1
 513.489,128.44, 5.0383e-003,1
 514.361,128.722, 5.0479e-003,1
 515.229,129.003, 5.0576e-003,1
 516.105,129.285, 5.0670e-003,1
 516.97,129.567, 5.0767e-003,1
 517.84,129.848, 5.0861e-003,1
 518.705,130.13, 5.0953e-003,1
 519.56,130.412, 5.1051e-003,1
 520.426,130.693, 5.1147e-003,1
 521.284,130.975, 5.1242e-003,1
 522.132,131.257, 5.1334e-003,1
 522.992,131.538, 5.1429e-003,1
 523.847,131.82, 5.1523e-003,1
 524.695,132.102, 5.1618e-003,1
 525.544,132.383, 5.1713e-003,1
 526.39,132.665, 5.1804e-003,1
 527.237,132.947, 5.1899e-003,1
 528.088,133.228, 5.1996e-003,1
 528.922,133.51, 5.2088e-003,1
 529.756,133.792, 5.2180e-003,1
 530.606,134.073, 5.2271e-003,1
 531.445,134.355, 5.2364e-003,1
 532.288,134.637, 5.2457e-003,1
 533.135,134.918, 5.2551e-003,1
 533.98,135.2, 5.2647e-003,1
 534.829,135.482, 5.2741e-003,1
 535.666,135.763, 5.2835e-003,1
 536.502,136.045, 5.2930e-003,1
 537.335,136.327, 5.3021e-003,1
 538.168,136.608, 5.3115e-003,1
 539.003,136.89, 5.3210e-003,1
 539.834,137.172, 5.3301e-003,1
 540.662,137.453, 5.3392e-003,1
 541.491,137.735, 5.3486e-003,1
 542.317,138.017, 5.3576e-003,1
 543.159,138.298, 5.3670e-003,1
 543.993,138.58, 5.3763e-003,1
 544.827,138.862, 5.3855e-003,1
 545.66,139.143, 5.3947e-003,1
 546.494,139.425, 5.4040e-003,1
 547.322,139.707, 5.4132e-003,1
 548.15,139.988, 5.4226e-003,1
 548.979,140.27, 5.4317e-003,1
 549.809,140.552, 5.4411e-003,1
 550.634,140.833, 5.4505e-003,1
 551.462,141.115, 5.4592e-003,1
 552.28,141.397, 5.4685e-003,1
 553.104,141.678, 5.4775e-003,1
 553.931,141.96, 5.4868e-003,1
 554.758,142.242, 5.4961e-003,1
 555.588,142.523, 5.5049e-003,1
 556.422,142.805, 5.5143e-003,1
 557.244,143.087, 5.5236e-003,1
 558.075,143.368, 5.5331e-003,1
 558.898,143.65, 5.5420e-003,1
 559.716,143.932, 5.5514e-003,1
 560.542,144.213, 5.5604e-003,1
 561.356,144.495, 5.5695e-003,1
 562.17,144.777, 5.5785e-003,1
 562.991,145.058, 5.5875e-003,1
 563.816,145.34, 5.5967e-003,1
 564.63,145.622, 5.6060e-003,1
 565.455,145.903, 5.6175e-003,1
 566.272,146.185, 5.6267e-003,1
 567.1,146.467, 5.6358e-003,1
 567.92,146.748, 5.6450e-003,1
 568.745,147.03, 5.6544e-003,1
 569.559,147.312, 5.6628e-003,1
 570.377,147.593, 5.6722e-003,1
 571.189,147.875, 5.6811e-003,1
 572.007,148.157, 5.6901e-003,1
 572.818,148.438, 5.6991e-003,1
 573.635,148.72, 5.7082e-003,1
 574.449,149.002, 5.7174e-003,1
 575.256,149.283, 5.7264e-003,1
 576.075,149.565, 5.7357e-003,1
 576.888,149.847, 5.7451e-003,1
 577.7,150.128, 5.7571e-003,1
 578.512,150.41, 5.7665e-003,1
 579.321,150.692, 5.7753e-003,1
 580.13,150.973, 5.7848e-003,1
 580.939,151.255, 5.7952e-003,1
 581.755,151.537, 5.8047e-003,1
 582.573,151.818, 5.8140e-003,1
 583.384,152.1, 5.8228e-003,1
 584.196,152.382, 5.8317e-003,1
 585.002,152.663, 5.8407e-003,1
 585.812,152.945, 5.8497e-003,1
 586.616,153.227, 5.8587e-003,1
 587.416,153.508, 5.8681e-003,1
 588.22,153.79, 5.8770e-003,1
 589.029,154.072, 5.8860e-003,1
 589.828,154.353, 5.8952e-003,1
 590.634,154.635, 5.9044e-003,1
 591.441,154.917, 5.9134e-003,1
 592.244,155.198, 5.9222e-003,1
 593.057,155.48, 5.9315e-003,1
 593.864,155.762, 5.9406e-003,1
 594.669,156.043, 5.9499e-003,1
 595.475,156.325, 5.9586e-003,1
 596.28,156.607, 5.9678e-003,1
 597.081,156.888, 5.9772e-003,1
 597.877,157.17, 5.9868e-003,1
 598.675,157.452, 5.9974e-003,1
 599.453,157.733, 6.0067e-003,1
 600.23,158.015, 6.0163e-003,1
 601.009,158.297, 6.0258e-003,1
 601.782,158.578, 6.0351e-003,1
 602.561,158.86, 6.0445e-003,1
 603.337,159.142, 6.0537e-003,1
 604.113,159.423, 6.0637e-003,1
 604.897,159.705, 6.0730e-003,1
 605.686,159.987, 6.0817e-003,1
 606.478,160.268, 6.0904e-003,1
 607.277,160.55, 6.0986e-003,1
 608.089,160.832, 6.1074e-003,1
 608.909,161.113, 6.1163e-003,1
 609.726,161.395, 6.1249e-003,1
 610.555,161.677, 6.1336e-003,1
 611.375,161.958, 6.1426e-003,1
 612.204,162.24, 6.1519e-003,1
 613.025,162.522, 6.1610e-003,1
 613.842,162.803, 6.1714e-003,1
 614.656,163.085, 6.1802e-003,1
 615.466,163.367, 6.1890e-003,1
 616.285,163.648, 6.1985e-003,1
 617.101,163.93, 6.2074e-003,1
 617.906,164.212, 6.2164e-003,1
 618.714,164.493, 6.2254e-003,1
 619.526,164.775, 6.2344e-003,1
 620.33,165.057, 6.2436e-003,1
 621.137,165.338, 6.2525e-003,1
 621.941,165.62, 6.2627e-003,1
 622.743,165.902, 6.2722e-003,1
 623.547,166.183, 6.2813e-003,1
 624.347,166.465, 6.2905e-003,1
 625.145,166.747, 6.2993e-003,1
 625.94,167.028, 6.3081e-003,1
 626.737,167.31, 6.3172e-003,1
 627.534,167.592, 6.3266e-003,1
 628.321,167.873, 6.3351e-003,1
 629.107,168.155, 6.3438e-003,1
 629.898,168.437, 6.3528e-003,1
 630.683,168.718, 6.3633e-003,1
 631.469,169, 6.3723e-003,1
 632.256,169.282, 6.3813e-003,1
 633.037,169.563, 6.3902e-003,1
 633.83,169.845, 6.3990e-003,1
 634.615,170.127, 6.4079e-003,1
 635.412,170.408, 6.4171e-003,1
 636.194,170.69, 6.4272e-003,1
 636.974,170.972, 6.4365e-003,1
 637.761,171.253, 6.4456e-003,1
 638.537,171.535, 6.4543e-003,1
 639.313,171.817, 6.4627e-003,1
 640.09,172.098, 6.4716e-003,1
 640.878,172.38, 6.4806e-003,1
 641.649,172.662, 6.4897e-003,1
 642.422,172.943, 6.4999e-003,1
 643.197,173.225, 6.5087e-003,1
 643.972,173.507, 6.5175e-003,1
 644.749,173.788, 6.5266e-003,1
 645.525,174.07, 6.5361e-003,1
 646.303,174.352, 6.5453e-003,1
 647.087,174.633, 6.5543e-003,1
 647.844,174.915, 6.5631e-003,1
 648.629,175.197, 6.5718e-003,1
 649.396,175.478, 6.5803e-003,1
 650.168,175.76, 6.5895e-003,1
 650.939,176.042, 6.5983e-003,1
 651.71,176.323, 6.6069e-003,1
 652.477,176.605, 6.6156e-003,1
 653.246,176.887, 6.6255e-003,1
 654.012,177.168, 6.6342e-003,1
 654.795,177.45, 6.6431e-003,1
 655.565,177.732, 6.6519e-003,1
 656.323,178.013, 6.6606e-003,1
 657.094,178.295, 6.6694e-003,1
 657.862,178.577, 6.6780e-003,1
 658.63,178.858, 6.6866e-003,1
 659.404,179.14, 6.6954e-003,1
 660.171,179.422, 6.7057e-003,1
 660.945,179.703, 6.7154e-003,1
 661.718,179.985, 6.7244e-003,1
 662.488,180.267, 6.7327e-003,1
 663.253,180.548, 6.7417e-003,1
 664.019,180.83, 6.7501e-003,1
 664.785,181.112, 6.7588e-003,1
 665.548,181.393, 6.7677e-003,1
 666.315,181.675, 6.7778e-003,1
 667.08,181.957, 6.7864e-003,1
 667.842,182.238, 6.7953e-003,1
 668.602,182.52, 6.8041e-003,1
 669.364,182.802, 6.8129e-003,1
 670.113,183.083, 6.8212e-003,1
 670.859,183.365, 6.8301e-003,1
 671.613,183.647, 6.8392e-003,1
 672.354,183.928, 6.8480e-003,1
 673.101,184.21, 6.8586e-003,1
 673.847,184.492, 6.8673e-003,1
 674.582,184.773, 6.8762e-003,1
 675.32,185.055, 6.8849e-003,1
 676.06,185.337, 6.8932e-003,1
 676.8,185.618, 6.9019e-003,1
 677.547,185.9, 6.9104e-003,1
 678.293,186.182, 6.9187e-003,1
 679.052,186.463, 6.9272e-003,1
 679.809,186.745, 6.9352e-003,1
 680.565,187.027, 6.9434e-003,1
 681.34,187.308, 6.9530e-003,1
 682.109,187.59, 6.9614e-003,1
 682.894,187.872, 6.9700e-003,1
 683.676,188.153, 6.9789e-003,1
 684.453,188.435, 6.9870e-003,1
 685.231,188.717, 6.9956e-003,1
 686.005,188.998, 7.0042e-003,1
 686.782,189.28, 7.0122e-003,1
 687.534,189.562, 7.0206e-003,1
 688.304,189.843, 7.0292e-003,1
 689.077,190.125, 7.0379e-003,1
 689.839,190.407, 7.0462e-003,1
 690.603,190.688, 7.0546e-003,1
 691.362,190.97, 7.0647e-003,1
 692.124,191.252, 7.0732e-003,1
 692.884,191.533, 7.0818e-003,1
 693.641,191.815, 7.0900e-003,1
 694.396,192.097, 7.0983e-003,1
 695.153,192.378, 7.1069e-003,1
 695.914,192.66, 7.1155e-003,1
 696.669,192.942, 7.1238e-003,1
 697.416,193.223, 7.1322e-003,1
 698.162,193.505, 7.1416e-003,1
 698.915,193.787, 7.1495e-003,1
 699.667,194.068, 7.1581e-003,1
 700.413,194.35, 7.1666e-003,1
 701.164,194.632, 7.1748e-003,1
 701.922,194.913, 7.1831e-003,1
 702.669,195.195, 7.1912e-003,1
 703.416,195.477, 7.1996e-003,1
 704.165,195.758, 7.2080e-003,1
 704.905,196.04, 7.2163e-003,1
 705.645,196.322, 7.2244e-003,1
 706.381,196.603, 7.2324e-003,1
 707.118,196.885, 7.2406e-003,1
 707.857,197.167, 7.2506e-003,1
 708.603,197.448, 7.2589e-003,1
 709.348,197.73, 7.2672e-003,1
 710.092,198.012, 7.2756e-003,1
 710.837,198.293, 7.2832e-003,1
 711.586,198.575, 7.2915e-003,1
 712.329,198.857, 7.2998e-003,1
 713.07,199.138, 7.3081e-003,1
 713.805,199.42, 7.3161e-003,1
 714.55,199.702, 7.3245e-003,1
 715.287,199.983, 7.3325e-003,1
 716.025,200.265, 7.3408e-003,1
 716.757,200.547, 7.3493e-003,1
 717.498,200.828, 7.3574e-003,1
 718.239,201.11, 7.3655e-003,1
 718.98,201.392, 7.3734e-003,1
 719.719,201.673, 7.3819e-003,1
 720.456,201.955, 7.3898e-003,1
 721.194,202.237, 7.4000e-003,1
 721.935,202.518, 7.4082e-003,1
 722.673,202.8, 7.4165e-003,1
 723.412,203.082, 7.4250e-003,1
 724.149,203.363, 7.4332e-003,1
 724.884,203.645, 7.4413e-003,1
 725.621,203.927, 7.4492e-003,1
 726.357,204.208, 7.4575e-003,1
 727.09,204.49, 7.4656e-003,1
 727.828,204.772, 7.4741e-003,1
 728.562,205.053, 7.4819e-003,1
 729.296,205.335, 7.4900e-003,1
 730.025,205.617, 7.4983e-003,1
 730.759,205.898, 7.5066e-003,1
 731.489,206.18, 7.5146e-003,1
 732.227,206.462, 7.5227e-003,1
 732.963,206.743, 7.5308e-003,1
 733.693,207.025, 7.5391e-003,1
 734.425,207.307, 7.5474e-003,1
 735.155,207.588, 7.5574e-003,1
 735.88,207.87, 7.5656e-003,1
 736.616,208.152, 7.5741e-003,1
 737.361,208.433, 7.5825e-003,1
 738.095,208.715, 7.5903e-003,1
 738.834,208.997, 7.5987e-003,1
 739.57,209.278, 7.6067e-003,1
 740.311,209.56, 7.6150e-003,1
 741.043,209.842, 7.6230e-003,1
 741.77,210.123, 7.6311e-003,1
 742.502,210.405, 7.6395e-003,1
 743.233,210.687, 7.6482e-003,1
 743.955,210.968, 7.6567e-003,1
 744.666,211.25, 7.6651e-003,1
 745.388,211.532, 7.6737e-003,1
 746.099,211.813, 7.6822e-003,1
 746.806,212.095, 7.6905e-003,1
 747.517,212.377, 7.6990e-003,1
 748.223,212.658, 7.7072e-003,1
 748.947,212.94, 7.7155e-003,1
 749.662,213.222, 7.7234e-003,1
 750.386,213.503, 7.7316e-003,1
 751.113,213.785, 7.7424e-003,1
 751.857,214.067, 7.7505e-003,1
 752.603,214.348, 7.7588e-003,1
 753.347,214.63, 7.7671e-003,1
 754.095,214.912, 7.7753e-003,1
 754.85,215.193, 7.7857e-003,1
 755.609,215.475, 7.7940e-003,1
 756.355,215.757, 7.8024e-003,1
 757.107,216.038, 7.8109e-003,1
 757.855,216.32, 7.8193e-003,1
 758.591,216.602, 7.8276e-003,1
 759.339,216.883, 7.8354e-003,1
 760.077,217.165, 7.8436e-003,1
 760.82,217.447, 7.8518e-003,1
 761.567,217.728, 7.8603e-003,1
 762.319,218.01, 7.8684e-003,1
 763.071,218.292, 7.8768e-003,1
 763.814,218.573, 7.8850e-003,1
 764.557,218.855, 7.8933e-003,1
 765.299,219.137, 7.9016e-003,1
 766.038,219.418, 7.9100e-003,1
 766.767,219.7, 7.9183e-003,1
 767.518,219.982, 7.9264e-003,1
 768.251,220.263, 7.9348e-003,1
 768.987,220.545, 7.9430e-003,1
 769.715,220.827, 7.9511e-003,1
 770.448,221.108, 7.9590e-003,1
 771.173,221.39, 7.9698e-003,1
 771.903,221.672, 7.9784e-003,1
 772.638,221.953, 7.9864e-003,1
 773.368,222.235, 7.9945e-003,1
 774.094,222.517, 8.0026e-003,1
 774.827,222.798, 8.0108e-003,1
 775.557,223.08, 8.0190e-003,1
 776.298,223.362, 8.0275e-003,1
 777.026,223.643, 8.0349e-003,1
 777.757,223.925, 8.0432e-003,1
 778.483,224.207, 8.0512e-003,1
 779.214,224.488, 8.0595e-003,1
 779.943,224.77, 8.0678e-003,1
 780.669,225.052, 8.0786e-003,1
 781.393,225.333, 8.0869e-003,1
 782.12,225.615, 8.0956e-003,1
 782.846,225.897, 8.1036e-003,1
 783.574,226.178, 8.1117e-003,1
 784.298,226.46, 8.1206e-003,1
 785.014,226.742, 8.1288e-003,1
 785.719,227.023, 8.1372e-003,1
 786.43,227.305, 8.1454e-003,1
 787.13,227.587, 8.1534e-003,1
 787.826,227.868, 8.1614e-003,1
 788.522,228.15, 8.1697e-003,1
 789.219,228.432, 8.1779e-003,1
 789.903,228.713, 8.1856e-003,1
 790.58,228.995, 8.1939e-003,1
 791.246,229.277, 8.2020e-003,1
 791.916,229.558, 8.2123e-003,1
 792.592,229.84, 8.2200e-003,1
 793.274,230.122, 8.2278e-003,1
 793.971,230.403, 8.2356e-003,1
 794.658,230.685, 8.2431e-003,1
 795.354,230.967, 8.2508e-003,1
 796.048,231.248, 8.2587e-003,1
 796.739,231.53, 8.2656e-003,1
 797.425,231.812, 8.2742e-003,1
 798.13,232.093, 8.2819e-003,1
 798.814,232.375, 8.2900e-003,1
 799.501,232.657, 8.2977e-003,1
 800.191,232.938, 8.3056e-003,1
 800.905,233.22, 8.3137e-003,1
 801.602,233.502, 8.3218e-003,1
 802.307,233.783, 8.3298e-003,1
 803.013,234.065, 8.3378e-003,1
 803.708,234.347, 8.3459e-003,1
 804.41,234.628, 8.3541e-003,1
 805.095,234.91, 8.3624e-003,1
 805.779,235.192, 8.3705e-003,1
 806.456,235.473, 8.3790e-003,1
 807.13,235.755, 8.3871e-003,1
 807.791,236.037, 8.3953e-003,1
 808.455,236.318, 8.4035e-003,1
 809.119,236.6, 8.4113e-003,1
 809.775,236.882, 8.4194e-003,1
 810.438,237.163, 8.4270e-003,1
 811.104,237.445, 8.4344e-003,1
 811.782,237.727, 8.4422e-003,1
 812.472,238.008, 8.4499e-003,1
 813.177,238.29, 8.4577e-003,1
 813.872,238.572, 8.4652e-003,1
 814.578,238.853, 8.4766e-003,1
 815.275,239.135, 8.4847e-003,1
 815.977,239.417, 8.4922e-003,1
 816.677,239.698, 8.5004e-003,1
 817.387,239.98, 8.5081e-003,1
 818.091,240.262, 8.5159e-003,1
 818.808,240.543, 8.5242e-003,1
 819.514,240.825, 8.5320e-003,1
 820.231,241.107, 8.5399e-003,1
 820.939,241.388, 8.5479e-003,1
 821.656,241.67, 8.5560e-003,1
 822.374,241.952, 8.5640e-003,1
 823.093,242.233, 8.5723e-003,1
 823.807,242.515, 8.5801e-003,1
 824.522,242.797, 8.5882e-003,1
 825.247,243.078, 8.5964e-003,1
 825.963,243.36, 8.6044e-003,1
 826.687,243.642, 8.6125e-003,1
 827.409,243.923, 8.6205e-003,1
 828.135,244.205, 8.6289e-003,1
 828.861,244.487, 8.6372e-003,1
 829.584,244.768, 8.6449e-003,1
 830.304,245.05, 8.6533e-003,1
 831.043,245.332, 8.6611e-003,1
 831.768,245.613, 8.6695e-003,1
 832.498,245.895, 8.6778e-003,1
 833.221,246.177, 8.6858e-003,1
 833.947,246.458, 8.6942e-003,1
 834.682,246.74, 8.7026e-003,1
 835.402,247.022, 8.7105e-003,1
 836.124,247.303, 8.7187e-003,1
 836.85,247.585, 8.7269e-003,1
 837.585,247.867, 8.7350e-003,1
 838.31,248.148, 8.7433e-003,1
 839.037,248.43, 8.7517e-003,1
 839.767,248.712, 8.7592e-003,1
 840.494,248.993, 8.7675e-003,1
 841.219,249.275, 8.7756e-003,1
 841.943,249.557, 8.7840e-003,1
 842.679,249.838, 8.7923e-003,1
 843.408,250.12, 8.8005e-003,1
 844.141,250.402, 8.8090e-003,1
 844.865,250.683, 8.8171e-003,1
 845.599,250.965, 8.8254e-003,1
 846.338,251.247, 8.8339e-003,1
 847.08,251.528, 8.8421e-003,1
 847.812,251.81, 8.8505e-003,1
 848.549,252.092, 8.8589e-003,1
 849.282,252.373, 8.8672e-003,1
 850.018,252.655, 8.8757e-003,1
 850.747,252.937, 8.8840e-003,1
 851.477,253.218, 8.8921e-003,1
 852.197,253.5, 8.9004e-003,1
 852.937,253.782, 8.9090e-003,1
 853.67,254.063, 8.9175e-003,1
 854.41,254.345, 8.9319e-003,1
 855.144,254.627, 8.9405e-003,1
 855.878,254.908, 8.9492e-003,1
 856.615,255.19, 8.9579e-003,1
 857.351,255.472, 8.9661e-003,1
 858.093,255.753, 8.9750e-003,1
 858.825,256.035, 8.9835e-003,1
 859.558,256.317, 8.9921e-003,1
 860.298,256.598, 9.0005e-003,1
 861.04,256.88, 9.0091e-003,1
 861.776,257.162, 9.0173e-003,1
 862.501,257.443, 9.0262e-003,1
 863.239,257.725, 9.0349e-003,1
 863.963,258.007, 9.0432e-003,1
 864.687,258.288, 9.0516e-003,1
 865.407,258.57, 9.0606e-003,1
 866.123,258.852, 9.0692e-003,1
 866.837,259.133, 9.0779e-003,1
 867.542,259.415, 9.0866e-003,1
 868.252,259.697, 9.0949e-003,1
 868.96,259.978, 9.1035e-003,1
 869.673,260.26, 9.1121e-003,1
 870.387,260.542, 9.1201e-003,1
 871.108,260.823, 9.1284e-003,1
 871.837,261.105, 9.1366e-003,1
 872.575,261.387, 9.1450e-003,1
 873.311,261.668, 9.1534e-003,1
 874.053,261.95, 9.1619e-003,1
 874.798,262.232, 9.1701e-003,1
 875.545,262.513, 9.1788e-003,1
 876.293,262.795, 9.1875e-003,1
 877.042,263.077, 9.1962e-003,1
 877.786,263.358, 9.2047e-003,1
 878.54,263.64, 9.2134e-003,1
 879.291,263.922, 9.2295e-003,1
 880.043,264.203, 9.2385e-003,1
 880.794,264.485, 9.2475e-003,1
 881.532,264.767, 9.2567e-003,1
 882.273,265.048, 9.2652e-003,1
 882.999,265.33, 9.2738e-003,1
 883.729,265.612, 9.2857e-003,1
 884.451,265.893, 9.2948e-003,1
 885.152,266.175, 9.3031e-003,1
 885.852,266.457, 9.3120e-003,1
 886.54,266.738, 9.3204e-003,1
 887.225,267.02, 9.3287e-003,1
 887.898,267.302, 9.3369e-003,1
 888.568,267.583, 9.3451e-003,1
 889.234,267.865, 9.3528e-003,1
 889.924,268.147, 9.3608e-003,1
 890.614,268.428, 9.3686e-003,1
 891.319,268.71, 9.3768e-003,1
 892.042,268.992, 9.3847e-003,1
 892.778,269.273, 9.3929e-003,1
 893.518,269.555, 9.4013e-003,1
 894.244,269.837, 9.4103e-003,1
 894.953,270.118, 9.4187e-003,1
 895.68,270.4, 9.4270e-003,1
 896.401,270.682, 9.4351e-003,1
 897.134,270.963, 9.4437e-003,1
 897.858,271.245, 9.4524e-003,1
 898.56,271.527, 9.4607e-003,1
 899.258,271.808, 9.4692e-003,1
 899.958,272.09, 9.4772e-003,1
 900.642,272.372, 9.4856e-003,1
 901.334,272.653, 9.4929e-003,1
 902.026,272.935, 9.5010e-003,1
 902.733,273.217, 9.5093e-003,1
 903.439,273.498, 9.5172e-003,1
 904.15,273.78, 9.5255e-003,1
 904.869,274.062, 9.5337e-003,1
 905.586,274.343, 9.5420e-003,1
 906.308,274.625, 9.5507e-003,1
 907.027,274.907, 9.5588e-003,1
 907.748,275.188, 9.5671e-003,1
 908.448,275.47, 9.5756e-003,1
 909.144,275.752, 9.5839e-003,1
 909.844,276.033, 9.5923e-003,1
 910.534,276.315, 9.6002e-003,1
 911.243,276.597, 9.6086e-003,1
 911.935,276.878, 9.6168e-003,1
 912.639,277.16, 9.6251e-003,1
 913.349,277.442, 9.6334e-003,1
 914.05,277.723, 9.6421e-003,1
 914.739,278.005, 9.6504e-003,1
 915.421,278.287, 9.6587e-003,1
 916.102,278.568, 9.6671e-003,1
 916.773,278.85, 9.6755e-003,1
 917.451,279.132, 9.6839e-003,1
 918.126,279.413, 9.6923e-003,1
 918.777,279.695, 9.7006e-003,1
 919.41,279.977, 9.7088e-003,1
 920.03,280.258, 9.7170e-003,1
 920.637,280.54, 9.7298e-003,1
 921.233,280.822, 9.7376e-003,1
 921.83,281.103, 9.7452e-003,1
 922.426,281.385, 9.7527e-003,1
 922.992,281.667, 9.7604e-003,1
 923.522,281.948, 9.7679e-003,1
 924.018,282.23, 9.7745e-003,1
 924.478,282.512, 9.7811e-003,1
 924.976,282.793, 9.7866e-003,1
 925.518,283.075, 9.7922e-003,1
 926.145,283.357, 9.7973e-003,1
 926.846,283.638, 9.8037e-003,1
 927.602,283.92, 9.8110e-003,1
 928.4,284.202, 9.8192e-003,1
 929.198,284.483, 9.8277e-003,1
 929.97,284.765, 9.8371e-003,1
 930.73,285.047, 9.8463e-003,1
 931.465,285.328, 9.8553e-003,1
 932.189,285.61, 9.8642e-003,1
 932.894,285.892, 9.8728e-003,1
 933.594,286.173, 9.8809e-003,1
 934.296,286.455, 9.8887e-003,1
 935.009,286.737, 9.8970e-003,1
 935.727,287.018, 9.9097e-003,1
 936.439,287.3, 9.9185e-003,1
 937.163,287.582, 9.9268e-003,1
 937.912,287.863, 9.9353e-003,1
 938.659,288.145, 9.9438e-003,1
 939.413,288.427, 9.9524e-003,1
 940.165,288.708, 9.9614e-003,1
 940.911,288.99, 9.9705e-003,1
 941.633,289.272, 9.9789e-003,1
 942.354,289.553, 9.9874e-003,1
 943.069,289.835, 9.9960e-003,1
 943.787,290.117, 1.0004e-002,1
 944.511,290.398, 1.0013e-002,1
 945.241,290.68, 1.0021e-002,1
 945.972,290.962, 1.0030e-002,1
 946.705,291.243, 1.0039e-002,1
 947.438,291.525, 1.0051e-002,1
 948.167,291.807, 1.0060e-002,1
 948.897,292.088, 1.0069e-002,1
 949.638,292.37, 1.0078e-002,1
 950.369,292.652, 1.0087e-002,1
 951.103,292.933, 1.0096e-002,1
 951.823,293.215, 1.0104e-002,1
 952.561,293.497, 1.0113e-002,1
 953.29,293.778, 1.0122e-002,1
 954.015,294.06, 1.0131e-002,1
 954.742,294.342, 1.0142e-002,1
 955.466,294.623, 1.0151e-002,1
 956.189,294.905, 1.0159e-002,1
 956.932,295.187, 1.0168e-002,1
 957.681,295.468, 1.0177e-002,1
 958.448,295.75, 1.0186e-002,1
 959.205,296.032, 1.0195e-002,1
 959.961,296.313, 1.0204e-002,1
 960.712,296.595, 1.0214e-002,1
 961.466,296.877, 1.0223e-002,1
 962.219,297.158, 1.0232e-002,1
 962.968,297.44, 1.0241e-002,1
 963.719,297.722, 1.0254e-002,1
 964.463,298.003, 1.0263e-002,1
 965.204,298.285, 1.0273e-002,1
 965.939,298.567, 1.0282e-002,1
 966.668,298.848, 1.0292e-002,1
 967.38,299.13, 1.0301e-002,1
 968.107,299.412, 1.0310e-002,1
 968.83,299.693, 1.0320e-002,1
 969.548,299.975, 1.0328e-002,1
 970.265,300.257, 1.0337e-002,1
 970.982,300.538, 1.0347e-002,1
 971.698,300.82, 1.0359e-002,1
 972.436,301.102, 1.0367e-002,1
 973.19,301.383, 1.0376e-002,1
 973.96,301.665, 1.0385e-002,1
 974.728,301.947, 1.0395e-002,1
 975.504,302.228, 1.0404e-002,1
 976.273,302.51, 1.0417e-002,1
 977.056,302.792, 1.0426e-002,1
 977.888,303.073, 1.0435e-002,1
 978.731,303.355, 1.0445e-002,1
 979.555,303.637, 1.0456e-002,1
 980.35,303.918, 1.0466e-002,1
 981.103,304.2, 1.0476e-002,1
 981.824,304.482, 1.0485e-002,1
 982.542,304.763, 1.0495e-002,1
 983.259,305.045, 1.0503e-002,1
 983.996,305.327, 1.0515e-002,1
 984.728,305.608, 1.0524e-002,1
 985.482,305.89, 1.0533e-002,1
 986.25,306.172, 1.0543e-002,1
 987.007,306.453, 1.0553e-002,1
 987.777,306.735, 1.0562e-002,1
 988.539,307.017, 1.0572e-002,1
 989.287,307.298, 1.0581e-002,1
 990.043,307.58, 1.0591e-002,1
 990.809,307.862, 1.0604e-002,1
 991.566,308.143, 1.0614e-002,1
 992.318,308.425, 1.0623e-002,1
 993.081,308.707, 1.0633e-002,1
 993.838,308.988, 1.0642e-002,1
 994.606,309.27, 1.0652e-002,1
 995.369,309.552, 1.0662e-002,1
 996.136,309.833, 1.0672e-002,1
 996.909,310.115, 1.0685e-002,1
 997.675,310.397, 1.0695e-002,1
 998.436,310.678, 1.0705e-002,1
 999.199,310.96, 1.0715e-002,1
 999.96,311.242, 1.0727e-002,1
1000.71,311.523, 1.0737e-002,1
1001.46,311.805, 1.0746e-002,1
1002.23,312.087, 1.0756e-002,1
1002.98,312.368, 1.0766e-002,1
1003.75,312.65, 1.0777e-002,1
1004.5,312.932, 1.0787e-002,1
1005.27,313.213, 1.0797e-002,1
1006.03,313.495, 1.0807e-002,1
1006.8,313.777, 1.0817e-002,1
1007.55,314.058, 1.0826e-002,1
1008.31,314.34, 1.0838e-002,1
1009.06,314.622, 1.0849e-002,1
1009.83,314.903, 1.0859e-002,1
1010.56,315.185, 1.0869e-002,1
1011.29,315.467, 1.0879e-002,1
1011.99,315.748, 1.0891e-002,1
1012.68,316.03, 1.0901e-002,1
1013.4,316.312, 1.0911e-002,1
1014.12,316.593, 1.0920e-002,1
1014.86,316.875, 1.0930e-002,1
1015.6,317.157, 1.0943e-002,1
1016.32,317.438, 1.0953e-002,1
1017.05,317.72, 1.0963e-002,1
1017.79,318.002, 1.0973e-002,1
1018.56,318.283, 1.0984e-002,1
1019.35,318.565, 1.0994e-002,1
1020.15,318.847, 1.1004e-002,1
1020.96,319.128, 1.1015e-002,1
1021.73,319.41, 1.1028e-002,1
1022.5,319.692, 1.1038e-002,1
1023.27,319.973, 1.1048e-002,1
1024.03,320.255, 1.1060e-002,1
1024.79,320.537, 1.1071e-002,1
1025.56,320.818, 1.1082e-002,1
1026.33,321.1, 1.1092e-002,1
1027.07,321.382, 1.1102e-002,1
1027.84,321.663, 1.1112e-002,1
1028.61,321.945, 1.1122e-002,1
1029.38,322.227, 1.1134e-002,1
1030.15,322.508, 1.1145e-002,1
1030.93,322.79, 1.1155e-002,1
1031.72,323.072, 1.1165e-002,1
1032.5,323.353, 1.1176e-002,1
1033.27,323.635, 1.1189e-002,1
1034.04,323.917, 1.1200e-002,1
1034.78,324.198, 1.1210e-002,1
1035.54,324.48, 1.1221e-002,1
1036.28,324.762, 1.1233e-002,1
1037.03,325.043, 1.1243e-002,1
1037.8,325.325, 1.1254e-002,1
1038.56,325.607, 1.1266e-002,1
1039.33,325.888, 1.1276e-002,1
1040.1,326.17, 1.1286e-002,1
1040.88,326.452, 1.1297e-002,1
1041.66,326.733, 1.1308e-002,1
1042.44,327.015, 1.1320e-002,1
1043.23,327.297, 1.1330e-002,1
1044.02,327.578, 1.1341e-002,1
1044.8,327.86, 1.1354e-002,1
1045.54,328.142, 1.1365e-002,1
1046.29,328.423, 1.1376e-002,1
1047.05,328.705, 1.1388e-002,1
1047.82,328.987, 1.1398e-002,1
1048.59,329.268, 1.1409e-002,1
1049.37,329.55, 1.1420e-002,1
1050.12,329.832, 1.1433e-002,1
1050.92,330.113, 1.1444e-002,1
1051.71,330.395, 1.1455e-002,1
1052.52,330.677, 1.1466e-002,1
1053.29,330.958, 1.1479e-002,1
1054.07,331.24, 1.1490e-002,1
1054.85,331.522, 1.1501e-002,1
1055.67,331.803, 1.1514e-002,1
1056.47,332.085, 1.1526e-002,1
1057.26,332.367, 1.1537e-002,1
1058.03,332.648, 1.1550e-002,1
1058.82,332.93, 1.1562e-002,1
1059.61,333.212, 1.1573e-002,1
1060.38,333.493, 1.1586e-002,1
1061.15,333.775, 1.1598e-002,1
1061.9,334.057, 1.1610e-002,1
1062.62,334.338, 1.1620e-002,1
1063.38,334.62, 1.1633e-002,1
1064.14,334.902, 1.1644e-002,1
1064.92,335.183, 1.1656e-002,1
1065.7,335.465, 1.1668e-002,1
1066.49,335.747, 1.1680e-002,1
1067.26,336.028, 1.1692e-002,1
1068.04,336.31, 1.1704e-002,1
1068.81,336.592, 1.1716e-002,1
1069.6,336.873, 1.1727e-002,1
1070.4,337.155, 1.1738e-002,1
1071.19,337.437, 1.1752e-002,1
1071.97,337.718, 1.1763e-002,1
1072.75,338, 1.1776e-002,1
1073.53,338.282, 1.1788e-002,1
1074.32,338.563, 1.1799e-002,1
1075.17,338.845, 1.1810e-002,1
1076.02,339.127, 1.1824e-002,1
1076.82,339.408, 1.1837e-002,1
1077.59,339.69, 1.1849e-002,1
1078.34,339.972, 1.1860e-002,1
1079.08,340.253, 1.1872e-002,1
1079.84,340.535, 1.1885e-002,1
1080.63,340.817, 1.1896e-002,1
1081.42,341.098, 1.1907e-002,1
1082.21,341.38, 1.1921e-002,1
1083.01,341.662, 1.1933e-002,1
1083.8,341.943, 1.1944e-002,1
1084.58,342.225, 1.1956e-002,1
1085.33,342.507, 1.1970e-002,1
1086.07,342.788, 1.1982e-002,1
1086.83,343.07, 1.1994e-002,1
1087.58,343.352, 1.2006e-002,1
1088.33,343.633, 1.2018e-002,1
1089.11,343.915, 1.2031e-002,1
1089.92,344.197, 1.2042e-002,1
1090.73,344.478, 1.2054e-002,1
1091.51,344.76, 1.2065e-002,1
1092.33,345.042, 1.2079e-002,1
1093.14,345.323, 1.2092e-002,1
1093.93,345.605, 1.2106e-002,1
1094.7,345.887, 1.2119e-002,1
1095.43,346.168, 1.2130e-002,1
1096.17,346.45, 1.2142e-002,1
1096.94,346.732, 1.2154e-002,1
1097.76,347.013, 1.2166e-002,1
1098.58,347.295, 1.2180e-002,1
1099.36,347.577, 1.2193e-002,1
1100.1,347.858, 1.2205e-002,1
1100.85,348.14, 1.2216e-002,1
1101.62,348.422, 1.2230e-002,1
1102.42,348.703, 1.2242e-002,1
1103.21,348.985, 1.2254e-002,1
1103.97,349.267, 1.2268e-002,1
1104.73,349.548, 1.2280e-002,1
1105.51,349.83, 1.2291e-002,1
1106.28,350.112, 1.2306e-002,1
1107.02,350.393, 1.2318e-002,1
1107.78,350.675, 1.2332e-002,1
1108.54,350.957, 1.2343e-002,1
1109.31,351.238, 1.2355e-002,1
1110.07,351.52, 1.2369e-002,1
1110.82,351.802, 1.2381e-002,1
1111.59,352.083, 1.2393e-002,1
1112.41,352.365, 1.2404e-002,1
1113.27,352.647, 1.2418e-002,1
1114.12,352.928, 1.2431e-002,1
1114.92,353.21, 1.2445e-002,1
1115.72,353.492, 1.2457e-002,1
1116.54,353.773, 1.2470e-002,1
1117.35,354.055, 1.2484e-002,1
1118.14,354.337, 1.2496e-002,1
1118.9,354.618, 1.2510e-002,1
1119.67,354.9, 1.2522e-002,1
1120.41,355.182, 1.2534e-002,1
1121.16,355.463, 1.2547e-002,1
1121.96,355.745, 1.2559e-002,1
1122.74,356.027, 1.2571e-002,1
1123.55,356.308, 1.2585e-002,1
1124.38,356.59, 1.2598e-002,1
1125.18,356.872, 1.2611e-002,1
1125.97,357.153, 1.2625e-002,1
1126.72,357.435, 1.2637e-002,1
1127.53,357.717, 1.2649e-002,1
1128.34,357.998, 1.2663e-002,1
1129.15,358.28, 1.2675e-002,1
1129.94,358.562, 1.2690e-002,1
1130.72,358.843, 1.2702e-002,1
1131.48,359.125, 1.2714e-002,1
1132.21,359.407, 1.2728e-002,1
1132.98,359.688, 1.2739e-002,1
1133.76,359.97, 1.2752e-002,1
1134.53,360.252, 1.2766e-002,1
1135.29,360.533, 1.2778e-002,1
1136.01,360.815, 1.2792e-002,1
1136.76,361.097, 1.2803e-002,1
1137.58,361.378, 1.2814e-002,1
1138.4,361.66, 1.2828e-002,1
1139.18,361.942, 1.2841e-002,1
1139.92,362.223, 1.2855e-002,1
1140.66,362.505, 1.2868e-002,1
1141.5,362.787, 1.2879e-002,1
1142.31,363.068, 1.2892e-002,1
1143.07,363.35, 1.2906e-002,1
1143.88,363.632, 1.2918e-002,1
1144.66,363.913, 1.2932e-002,1
1145.41,364.195, 1.2944e-002,1
1146.16,364.477, 1.2957e-002,1
1147,364.758, 1.2969e-002,1
1147.89,365.04, 1.2981e-002,1
1148.75,365.322, 1.2997e-002,1
1149.46,365.603, 1.3010e-002,1
1150.3,365.885, 1.3021e-002,1
1151.25,366.167, 1.3036e-002,1
1152.21,366.448, 1.3049e-002,1
1153.14,366.73, 1.3064e-002,1
1154.04,367.012, 1.3079e-002,1
1154.9,367.293, 1.3092e-002,1
1155.79,367.575, 1.3107e-002,1
1156.7,367.857, 1.3120e-002,1
1157.56,368.138, 1.3135e-002,1
1158.44,368.42, 1.3148e-002,1
1159.31,368.702, 1.3162e-002,1
1160.15,368.983, 1.3175e-002,1
1160.95,369.265, 1.3189e-002,1
1161.72,369.547, 1.3202e-002,1
1162.48,369.828, 1.3215e-002,1
1163.23,370.11, 1.3227e-002,1
1163.98,370.392, 1.3240e-002,1
1164.74,370.673, 1.3251e-002,1
1165.49,370.955, 1.3262e-002,1
1166.23,371.237, 1.3276e-002,1
1166.96,371.518, 1.3288e-002,1
1167.67,371.8, 1.3299e-002,1
1168.36,372.082, 1.3312e-002,1
1169.04,372.363, 1.3323e-002,1
1169.72,372.645, 1.3333e-002,1
1170.39,372.927, 1.3343e-002,1
1171.05,373.208, 1.3356e-002,1
1171.68,373.49, 1.3366e-002,1
1172.32,373.772, 1.3377e-002,1
1173.02,374.053, 1.3388e-002,1
1173.76,374.335, 1.3398e-002,1
1174.52,374.617, 1.3408e-002,1
1175.29,374.898, 1.3419e-002,1
1176.07,375.18, 1.3433e-002,1
1176.83,375.462, 1.3445e-002,1
1177.6,375.743, 1.3455e-002,1
1178.35,376.025, 1.3468e-002,1
1179.1,376.307, 1.3480e-002,1
1179.83,376.588, 1.3490e-002,1
1180.54,376.87, 1.3503e-002,1
1181.24,377.152, 1.3513e-002,1
1181.96,377.433, 1.3523e-002,1
1182.7,377.715, 1.3533e-002,1
1183.44,377.997, 1.3544e-002,1
1184.21,378.278, 1.3557e-002,1
1184.97,378.56, 1.3567e-002,1
1185.79,378.842, 1.3578e-002,1
1186.66,379.123, 1.3590e-002,1
1187.51,379.405, 1.3601e-002,1
1188.33,379.687, 1.3615e-002,1
1189.16,379.968, 1.3626e-002,1
1190,380.25, 1.3638e-002,1
1190.88,380.532, 1.3649e-002,1
1191.77,380.813, 1.3664e-002,1
1192.67,381.095, 1.3676e-002,1
1193.56,381.377, 1.3689e-002,1
1194.44,381.658, 1.3701e-002,1
1195.31,381.94, 1.3712e-002,1
1196.14,382.222, 1.3728e-002,1
1196.94,382.503, 1.3740e-002,1
1197.68,382.785, 1.3751e-002,1
1198.39,383.067, 1.3762e-002,1
1199.09,383.348, 1.3771e-002,1
1199.76,383.63, 1.3783e-002,1
1200.43,383.912, 1.3793e-002,1
1201.16,384.193, 1.3802e-002,1
1201.96,384.475, 1.3812e-002,1
1202.81,384.757, 1.3822e-002,1
1203.69,385.038, 1.3834e-002,1
1204.54,385.32, 1.3845e-002,1
1205.37,385.602, 1.3860e-002,1
1206.17,385.883, 1.3871e-002,1
1206.97,386.165, 1.3882e-002,1
1207.77,386.447, 1.3895e-002,1
1208.57,386.728, 1.3906e-002,1
1209.37,387.01, 1.3917e-002,1
1210.12,387.292, 1.3927e-002,1
1210.92,387.573, 1.3937e-002,1
1211.74,387.855, 1.3949e-002,1
1212.51,388.137, 1.3962e-002,1
1213.25,388.418, 1.3973e-002,1
1214.02,388.7, 1.3983e-002,1
1214.85,388.982, 1.3993e-002,1
1215.67,389.263, 1.4007e-002,1
1216.47,389.545, 1.4019e-002,1
1217.28,389.827, 1.4030e-002,1
1218.04,390.108, 1.4043e-002,1
1218.73,390.39, 1.4054e-002,1
1219.39,390.672, 1.4064e-002,1
1220.15,390.953, 1.4073e-002,1
1220.96,391.235, 1.4085e-002,1
1221.79,391.517, 1.4097e-002,1
1222.61,391.798, 1.4108e-002,1
1223.43,392.08, 1.4119e-002,1
1224.27,392.362, 1.4133e-002,1
1225.1,392.643, 1.4145e-002,1
1225.93,392.925, 1.4156e-002,1
1226.78,393.207, 1.4169e-002,1
1227.67,393.488, 1.4180e-002,1
1228.54,393.77, 1.4193e-002,1
1229.35,394.052, 1.4205e-002,1
1230.14,394.333, 1.4219e-002,1
1230.9,394.615, 1.4231e-002,1
1231.66,394.897, 1.4243e-002,1
1232.41,395.178, 1.4255e-002,1
1233.02,395.39, 1.4263e-002,2
1233.3,395.52, 1.4269e-002,2
1233.27,395.65, 1.4279e-002,2
1232.76,395.78, 1.4290e-002,2
1231.74,395.91, 1.4296e-002,2
1230.22,396.04, 1.4296e-002,2
1228.25,396.17, 1.4290e-002,2
1225.89,396.3, 1.4279e-002,2
1223.24,396.43, 1.4261e-002,2
1220.42,396.56, 1.4237e-002,2
1217.46,396.69, 1.4208e-002,2
1214.43,396.82, 1.4178e-002,2
1211.35,396.95, 1.4146e-002,2
1208.26,397.08, 1.4112e-002,2
1205.18,397.21, 1.4077e-002,2
1202.12,397.34, 1.4043e-002,2
1199.1,397.47, 1.4008e-002,2
1196.1,397.6, 1.3972e-002,2
1193.14,397.73, 1.3938e-002,2
1190.2,397.86, 1.3903e-002,2
1187.3,397.99, 1.3869e-002,2
1184.44,398.12, 1.3834e-002,2
1181.61,398.25, 1.3800e-002,2
1178.81,398.38, 1.3766e-002,2
1176.03,398.51, 1.3733e-002,2
1173.24,398.64, 1.3701e-002,2
1170.41,398.77, 1.3669e-002,2
1167.55,398.9, 1.3637e-002,2
1164.65,399.03, 1.3604e-002,2
1161.7,399.16, 1.3572e-002,2
1158.75,399.29, 1.3539e-002,2
1155.75,399.42, 1.3504e-002,2
1152.73,399.55, 1.3470e-002,2
1149.7,399.68, 1.3436e-002,2
1146.64,399.81, 1.3402e-002,2
1143.59,399.94, 1.3366e-002,2
1140.53,400.07, 1.3331e-002,2
1137.45,400.2, 1.3295e-002,2
1134.38,400.33, 1.3260e-002,2
1131.3,400.46, 1.3223e-002,2
1128.21,400.59, 1.3187e-002,2
1125.16,400.72, 1.3152e-002,2
1122.07,400.85, 1.3116e-002,2
1119,400.98, 1.3080e-002,2
1115.93,401.11, 1.3044e-002,2
1112.85,401.24, 1.3009e-002,2
1109.81,401.37, 1.2974e-002,2
1106.74,401.5, 1.2938e-002,2
1103.67,401.63, 1.2902e-002,2
1100.6,401.76, 1.2866e-002,2
1097.52,401.89, 1.2830e-002,2
1094.44,402.02, 1.2794e-002,2
1091.36,402.15, 1.2759e-002,2
1088.27,402.28, 1.2723e-002,2
1085.17,402.41, 1.2688e-002,2
1082.07,402.54, 1.2652e-002,2
1078.98,402.67, 1.2615e-002,2
1075.87,402.8, 1.2579e-002,2
1072.78,402.93, 1.2544e-002,2
1069.69,403.06, 1.2507e-002,2
1066.59,403.19, 1.2471e-002,2
1063.49,403.32, 1.2436e-002,2
1060.39,403.45, 1.2399e-002,2
1057.3,403.58, 1.2363e-002,2
1054.21,403.71, 1.2329e-002,2
1051.1,403.84, 1.2292e-002,2
1048.01,403.97, 1.2257e-002,2
1044.91,404.1, 1.2220e-002,2
1041.82,404.23, 1.2185e-002,2
1038.74,404.36, 1.2149e-002,2
1035.65,404.49, 1.2111e-002,2
1032.57,404.62, 1.2077e-002,2
1029.5,404.75, 1.2040e-002,2
1026.42,404.88, 1.2005e-002,2
1023.35,405.01, 1.1970e-002,2
1020.29,405.14, 1.1935e-002,2
1017.23,405.27, 1.1899e-002,2
1014.17,405.4, 1.1865e-002,2
1011.12,405.53, 1.1829e-002,2
1008.06,405.66, 1.1794e-002,2
1005.03,405.79, 1.1758e-002,2
1002,405.92, 1.1724e-002,2
 998.96,406.05, 1.1689e-002,2
 995.932,406.18, 1.1654e-002,2
 992.896,406.31, 1.1619e-002,2
 989.874,406.44, 1.1584e-002,2
 986.858,406.57, 1.1549e-002,2
 983.839,406.7, 1.1515e-002,2
 980.82,406.83, 1.1480e-002,2
 977.814,406.96, 1.1445e-002,2
 974.808,407.09, 1.1411e-002,2
 971.805,407.22, 1.1376e-002,2
 968.811,407.35, 1.1341e-002,2
 965.818,407.48, 1.1307e-002,2
 963.515,407.58, 1.1280e-002,2