File: data/14.1mm-083019/byto000sB1r1-14.3mm-090919.csv
#EXPORTTYPE:           ,DATA ALL
#FILE:                 ,bytownBs1r1.ngb-sle
#FORMAT:               ,NETZSCH5
#FTYPE:                ,ANSI
#IDENTITY:             ,bytownite s1
#DECIMAL:              ,POINT
#SEPARATOR:            ,COMMA
#MTYPE:                ,DIL
#INSTRUMENT:           ,NETZSCH DIL 402C
#PROJECT:              ,feldspar
#DATE/TIME:            ,9/9/2019 9:42:22 AM (UTC-5)
#CORR. FILE:           ,
#TEMPCAL:              ,TCALZERO.TMX
#LABORATORY:           ,Mineral Physics
#OPERATOR:             ,PAG
#REMARK:               ,bare, norm start, for bytown and rocks , fbm B 010 or 001 rect x section. nice ends
#SAMPLE:               ,FBM-B
#SAMPLE LENGTH /mm:    ,14.265
#MATERIAL:             ,sapphire stnd
#MEASMODE:             ,Standard Expansion
#PURGE GAS 1:          ,ARGON
#FLOW RATE 1 /(ml/min):,75
#M.RANGE /µm:          ,500
#CORR. CODE:           ,010
#RANGE:                ,20.0°C/3.0(K/min)/1180.0°C/30.0(K/min)/900.0°C/
#SEGMENT:              ,S1-2/2
#SEG. 1:               ,20.0°C/3.0(K/min)/1180.0°C
#SEG. 2:               ,1180.0°C/30.0(K/min)/900.0°C

##Temp./°C,Time/min,dL/Lo,Segment
  22.54500,  0.00000, 2.2440e-005,1
  22.56200,  0.28167, 2.4533e-005,1
  22.58100,  0.56333, 2.6325e-005,1
  22.58700,  0.84500, 2.7200e-005,1
  22.59100,  1.12667, 2.7194e-005,1
  22.57100,  1.40833, 2.6805e-005,1
  22.57100,  1.69000, 2.5903e-005,1
  22.56300,  1.97167, 2.5513e-005,1
  22.56800,  2.25333, 2.5233e-005,1
  22.57400,  2.53500, 2.4732e-005,1
  22.56500,  2.81667, 2.3669e-005,1
  22.56900,  3.09833, 2.3119e-005,1
  22.59600,  3.38000, 2.2594e-005,1
  22.60300,  3.66167, 2.1478e-005,1
  22.67100,  3.94333, 1.9861e-005,1
  22.81000,  4.22500, 1.7438e-005,1
  23.05900,  4.50667, 1.4346e-005,1
  23.44200,  4.78833, 1.0179e-005,1
  23.95600,  5.07000, 4.6462e-006,1
  24.61500,  5.35167,-1.8198e-006,1
  25.41500,  5.63333,-8.7113e-006,1
  26.35100,  5.91500,-1.6185e-005,1
  27.40500,  6.19667,-2.3546e-005,1
  28.56900,  6.47833,-2.9736e-005,1
  29.79500,  6.76000,-3.5545e-005,1
  31.08100,  7.04167,-3.9927e-005,1
  32.40900,  7.32333,-4.3485e-005,1
  33.76800,  7.60500,-4.5376e-005,1
  35.15200,  7.88667,-4.5933e-005,1
  36.52600,  8.16833,-4.6460e-005,1
  37.90600,  8.45000,-4.5467e-005,1
  39.30300,  8.73167,-4.3600e-005,1
  40.66800,  9.01333,-4.1601e-005,1
  42.05400,  9.29500,-3.8798e-005,1
  43.44800,  9.57667,-3.5267e-005,1
  44.83100,  9.85833,-3.2084e-005,1
  46.23500, 10.14000,-2.8649e-005,1
  47.66400, 10.42167,-2.5356e-005,1
  49.10300, 10.70333,-2.1436e-005,1
  50.54800, 10.98500,-1.7102e-005,1
  52.00300, 11.26667,-1.3422e-005,1
  53.49000, 11.54833,-9.6404e-006,1
  54.97600, 11.83000,-5.1802e-006,1
  56.46500, 12.11167,-7.1368e-007,1
  57.97300, 12.39333, 3.9627e-006,1
  59.48500, 12.67500, 8.5743e-006,1
  61.02600, 12.95667, 1.3933e-005,1
  62.51100, 13.23833, 1.8433e-005,1
  64.05600, 13.52000, 2.4703e-005,1
  65.56900, 13.80167, 2.9632e-005,1
  67.09300, 14.08333, 3.5274e-005,1
  68.60700, 14.36500, 4.1067e-005,1
  70.11900, 14.64667, 4.6892e-005,1
  71.63000, 14.92833, 5.3599e-005,1
  73.14300, 15.21000, 6.0429e-005,1
  74.64300, 15.49167, 6.7266e-005,1
  76.13900, 15.77333, 7.4218e-005,1
  77.64400, 16.05500, 8.1388e-005,1
  79.14400, 16.33667, 8.8719e-005,1
  80.63300, 16.61833, 9.5877e-005,1
  82.12200, 16.90000, 1.0349e-004,1
  83.60100, 17.18167, 1.1107e-004,1
  85.07700, 17.46333, 1.1907e-004,1
  86.54900, 17.74500, 1.2602e-004,1
  88.01700, 18.02667, 1.3394e-004,1
  89.48200, 18.30833, 1.4144e-004,1
  90.93100, 18.59000, 1.4864e-004,1
  92.39200, 18.87167, 1.5619e-004,1
  93.83600, 19.15333, 1.6299e-004,1
  95.27600, 19.43500, 1.7046e-004,1
  96.71200, 19.71667, 1.7734e-004,1
  98.14900, 19.99833, 1.8434e-004,1
  99.59500, 20.28000, 1.9095e-004,1
 101.016, 20.56167, 1.9694e-004,1
 102.442, 20.84333, 2.0319e-004,1
 103.853, 21.12500, 2.0898e-004,1
 105.276, 21.40667, 2.1453e-004,1
 106.69, 21.68833, 2.1931e-004,1
 108.098, 21.97000, 2.2398e-004,1
 109.512, 22.25167, 2.2823e-004,1
 110.901, 22.53333, 2.3197e-004,1
 112.308, 22.81500, 2.3516e-004,1
 113.698, 23.09667, 2.3789e-004,1
 115.093, 23.37833, 2.3978e-004,1
 116.48, 23.66000, 2.4121e-004,1
 117.87, 23.94167, 2.4147e-004,1
 119.244, 24.22333, 2.4173e-004,1
 120.624, 24.50500, 2.4108e-004,1
 122.009, 24.78667, 2.3915e-004,1
 123.379, 25.06833, 2.3622e-004,1
 124.753, 25.35000, 2.3253e-004,1
 126.138, 25.63167, 2.2799e-004,1
 127.5, 25.91333, 2.2284e-004,1
 128.863, 26.19500, 2.1692e-004,1
 130.222, 26.47667, 2.1006e-004,1
 131.586, 26.75833, 2.0422e-004,1
 132.949, 27.04000, 1.9709e-004,1
 134.296, 27.32167, 1.8945e-004,1
 135.659, 27.60333, 1.8137e-004,1
 137.005, 27.88500, 1.7274e-004,1
 138.353, 28.16667, 1.6102e-004,1
 139.709, 28.44833, 1.5002e-004,1
 141.049, 28.73000, 1.3841e-004,1
 142.386, 29.01167, 1.2419e-004,1
 143.73, 29.29333, 1.0624e-004,1
 145.072, 29.57500, 8.6528e-005,1
 146.401, 29.85667, 6.5837e-005,1
 147.731, 30.13833, 4.3770e-005,1
 149.072, 30.42000, 2.2399e-005,1
 150.391, 30.70167, 5.5900e-006,1
 151.719, 30.98333,-1.0293e-005,1
 153.041, 31.26500,-3.0143e-005,1
 154.361, 31.54667,-5.1506e-005,1
 155.68, 31.82833,-8.0233e-005,1
 157.001, 32.11000,-1.0447e-004,1
 158.314, 32.39167,-1.2297e-004,1
 159.624, 32.67333,-1.3567e-004,1
 160.939, 32.95500,-1.4715e-004,1
 162.264, 33.23667,-1.5496e-004,1
 163.563, 33.51833,-1.6280e-004,1
 164.87, 33.80000,-1.6818e-004,1
 166.17, 34.08167,-1.7043e-004,1
 167.475, 34.36333,-1.7008e-004,1
 168.775, 34.64500,-1.6770e-004,1
 170.067, 34.92667,-1.6374e-004,1
 171.371, 35.20833,-1.5912e-004,1
 172.665, 35.49000,-1.5377e-004,1
 173.948, 35.77167,-1.4839e-004,1
 175.235, 36.05333,-1.4232e-004,1
 176.521, 36.33500,-1.3491e-004,1
 177.804, 36.61667,-1.2782e-004,1
 179.096, 36.89833,-1.2080e-004,1
 180.383, 37.18000,-1.1302e-004,1
 181.664, 37.46167,-1.0564e-004,1
 182.95, 37.74333,-9.7499e-005,1
 184.213, 38.02500,-9.0225e-005,1
 185.493, 38.30667,-8.1784e-005,1
 186.763, 38.58833,-7.4293e-005,1
 188.023, 38.87000,-6.5839e-005,1
 189.291, 39.15167,-5.8217e-005,1
 190.568, 39.43333,-4.9721e-005,1
 191.825, 39.71500,-4.1812e-005,1
 193.082, 39.99667,-3.2983e-005,1
 194.349, 40.27833,-2.4965e-005,1
 195.61, 40.56000,-1.5854e-005,1
 196.863, 40.84167,-7.0848e-006,1
 198.114, 41.12333, 2.0080e-006,1
 199.366, 41.40500, 1.1000e-005,1
 200.612, 41.68667, 1.9295e-005,1
 201.85, 41.96833, 2.8446e-005,1
 203.094, 42.25000, 3.7595e-005,1
 204.332, 42.53167, 4.6732e-005,1
 205.576, 42.81333, 5.5991e-005,1
 206.809, 43.09500, 6.5376e-005,1
 208.051, 43.37667, 7.4530e-005,1
 209.279, 43.65833, 8.3474e-005,1
 210.506, 43.94000, 9.2806e-005,1
 211.73, 44.22167, 1.0226e-004,1
 212.966, 44.50333, 1.1179e-004,1
 214.203, 44.78500, 1.2098e-004,1
 215.433, 45.06667, 1.3046e-004,1
 216.652, 45.34833, 1.3964e-004,1
 217.871, 45.63000, 1.4937e-004,1
 219.093, 45.91167, 1.5885e-004,1
 220.311, 46.19333, 1.6819e-004,1
 221.524, 46.47500, 1.7759e-004,1
 222.742, 46.75667, 1.8759e-004,1
 223.957, 47.03833, 1.9697e-004,1
 225.162, 47.32000, 2.0672e-004,1
 226.366, 47.60167, 2.1601e-004,1
 227.572, 47.88333, 2.2543e-004,1
 228.77, 48.16500, 2.3503e-004,1
 229.971, 48.44667, 2.4419e-004,1
 231.179, 48.72833, 2.5387e-004,1
 232.379, 49.01000, 2.6357e-004,1
 233.569, 49.29167, 2.7308e-004,1
 234.775, 49.57333, 2.8339e-004,1
 235.973, 49.85500, 2.9246e-004,1
 237.161, 50.13667, 3.0215e-004,1
 238.342, 50.41833, 3.1146e-004,1
 239.542, 50.70000, 3.2093e-004,1
 240.729, 50.98167, 3.3054e-004,1
 241.91, 51.26333, 3.4009e-004,1
 243.097, 51.54500, 3.4950e-004,1
 244.274, 51.82667, 3.5920e-004,1
 245.443, 52.10833, 3.6861e-004,1
 246.622, 52.39000, 3.7825e-004,1
 247.804, 52.67167, 3.8770e-004,1
 248.977, 52.95333, 3.9721e-004,1
 250.143, 53.23500, 4.0707e-004,1
 251.313, 53.51667, 4.1612e-004,1
 252.477, 53.79833, 4.2557e-004,1
 253.631, 54.08000, 4.3486e-004,1
 254.806, 54.36167, 4.4446e-004,1
 255.968, 54.64333, 4.5380e-004,1
 257.13, 54.92500, 4.6303e-004,1
 258.29, 55.20667, 4.7201e-004,1
 259.443, 55.48833, 4.8184e-004,1
 260.597, 55.77000, 4.9122e-004,1
 261.749, 56.05167, 5.0062e-004,1
 262.899, 56.33333, 5.1003e-004,1
 264.051, 56.61500, 5.1948e-004,1
 265.189, 56.89667, 5.2875e-004,1
 266.348, 57.17833, 5.3806e-004,1
 267.485, 57.46000, 5.4732e-004,1
 268.619, 57.74167, 5.5651e-004,1
 269.759, 58.02333, 5.6541e-004,1
 270.892, 58.30500, 5.7448e-004,1
 272.033, 58.58667, 5.8395e-004,1
 273.153, 58.86833, 5.9305e-004,1
 274.287, 59.15000, 6.0238e-004,1
 275.42, 59.43167, 6.1159e-004,1
 276.552, 59.71333, 6.2105e-004,1
 277.684, 59.99500, 6.3031e-004,1
 278.809, 60.27667, 6.3933e-004,1
 279.926, 60.55833, 6.4874e-004,1
 281.047, 60.84000, 6.5769e-004,1
 282.164, 61.12167, 6.6729e-004,1
 283.279, 61.40333, 6.7618e-004,1
 284.396, 61.68500, 6.8521e-004,1
 285.515, 61.96667, 6.9442e-004,1
 286.628, 62.24833, 7.0384e-004,1
 287.738, 62.53000, 7.1288e-004,1
 288.849, 62.81167, 7.2226e-004,1
 289.957, 63.09333, 7.3156e-004,1
 291.063, 63.37500, 7.4043e-004,1
 292.168, 63.65667, 7.4977e-004,1
 293.275, 63.93833, 7.5911e-004,1
 294.38, 64.22000, 7.6822e-004,1
 295.474, 64.50167, 7.7770e-004,1
 296.581, 64.78333, 7.8728e-004,1
 297.684, 65.06500, 7.9616e-004,1
 298.783, 65.34667, 8.0562e-004,1
 299.864, 65.62833, 8.1473e-004,1
 300.958, 65.91000, 8.2397e-004,1
 302.048, 66.19167, 8.3307e-004,1
 303.139, 66.47333, 8.4238e-004,1
 304.221, 66.75500, 8.5143e-004,1
 305.312, 67.03667, 8.6081e-004,1
 306.397, 67.31833, 8.7014e-004,1
 307.483, 67.60000, 8.7903e-004,1
 308.563, 67.88167, 8.8834e-004,1
 309.639, 68.16333, 8.9742e-004,1
 310.714, 68.44500, 9.0722e-004,1
 311.791, 68.72667, 9.1647e-004,1
 312.873, 69.00833, 9.2578e-004,1
 313.952, 69.29000, 9.3515e-004,1
 315.016, 69.57167, 9.4443e-004,1
 316.082, 69.85333, 9.5355e-004,1
 317.151, 70.13500, 9.6310e-004,1
 318.224, 70.41667, 9.7197e-004,1
 319.296, 70.69833, 9.8161e-004,1
 320.369, 70.98000, 9.9013e-004,1
 321.44, 71.26167, 9.9955e-004,1
 322.516, 71.54333, 1.0088e-003,1
 323.575, 71.82500, 1.0179e-003,1
 324.64, 72.10667, 1.0268e-003,1
 325.702, 72.38833, 1.0363e-003,1
 326.769, 72.67000, 1.0454e-003,1
 327.833, 72.95167, 1.0547e-003,1
 328.88, 73.23333, 1.0638e-003,1
 329.926, 73.51500, 1.0726e-003,1
 330.973, 73.79667, 1.0822e-003,1
 332.019, 74.07833, 1.0911e-003,1
 333.072, 74.36000, 1.1004e-003,1
 334.111, 74.64167, 1.1092e-003,1
 335.144, 74.92333, 1.1185e-003,1
 336.19, 75.20500, 1.1272e-003,1
 337.224, 75.48667, 1.1363e-003,1
 338.266, 75.76833, 1.1451e-003,1
 339.304, 76.05000, 1.1542e-003,1
 340.348, 76.33167, 1.1631e-003,1
 341.391, 76.61333, 1.1725e-003,1
 342.428, 76.89500, 1.1811e-003,1
 343.459, 77.17667, 1.1900e-003,1
 344.492, 77.45833, 1.1991e-003,1
 345.522, 77.74000, 1.2080e-003,1
 346.547, 78.02167, 1.2169e-003,1
 347.571, 78.30333, 1.2261e-003,1
 348.596, 78.58500, 1.2348e-003,1
 349.626, 78.86667, 1.2438e-003,1
 350.645, 79.14833, 1.2526e-003,1
 351.67, 79.43000, 1.2618e-003,1
 352.69, 79.71167, 1.2706e-003,1
 353.708, 79.99333, 1.2799e-003,1
 354.728, 80.27500, 1.2889e-003,1
 355.738, 80.55667, 1.2981e-003,1
 356.749, 80.83833, 1.3070e-003,1
 357.758, 81.12000, 1.3166e-003,1
 358.752, 81.40167, 1.3258e-003,1
 359.751, 81.68333, 1.3354e-003,1
 360.748, 81.96500, 1.3446e-003,1
 361.741, 82.24667, 1.3539e-003,1
 362.731, 82.52833, 1.3625e-003,1
 363.72, 82.81000, 1.3714e-003,1
 364.716, 83.09167, 1.3801e-003,1
 365.72, 83.37333, 1.3884e-003,1
 366.72, 83.65500, 1.3967e-003,1
 367.739, 83.93667, 1.4048e-003,1
 368.764, 84.21833, 1.4130e-003,1
 369.791, 84.50000, 1.4211e-003,1
 370.83, 84.78167, 1.4293e-003,1
 371.871, 85.06333, 1.4375e-003,1
 372.918, 85.34500, 1.4460e-003,1
 373.967, 85.62667, 1.4544e-003,1
 375.014, 85.90833, 1.4628e-003,1
 376.053, 86.19000, 1.4716e-003,1
 377.103, 86.47167, 1.4803e-003,1
 378.138, 86.75333, 1.4889e-003,1
 379.167, 87.03500, 1.4977e-003,1
 380.193, 87.31667, 1.5063e-003,1
 381.22, 87.59833, 1.5151e-003,1
 382.24, 87.88000, 1.5240e-003,1
 383.256, 88.16167, 1.5324e-003,1
 384.269, 88.44333, 1.5411e-003,1
 385.273, 88.72500, 1.5496e-003,1
 386.284, 89.00667, 1.5584e-003,1
 387.285, 89.28833, 1.5670e-003,1
 388.289, 89.57000, 1.5756e-003,1
 389.29, 89.85167, 1.5844e-003,1
 390.286, 90.13333, 1.5930e-003,1
 391.287, 90.41500, 1.6018e-003,1
 392.278, 90.69667, 1.6104e-003,1
 393.28, 90.97833, 1.6190e-003,1
 394.261, 91.26000, 1.6275e-003,1
 395.241, 91.54167, 1.6360e-003,1
 396.217, 91.82333, 1.6444e-003,1
 397.189, 92.10500, 1.6531e-003,1
 398.154, 92.38667, 1.6616e-003,1
 399.126, 92.66833, 1.6701e-003,1
 400.086, 92.95000, 1.6784e-003,1
 401.056, 93.23167, 1.6867e-003,1
 402.02, 93.51333, 1.6956e-003,1
 402.981, 93.79500, 1.7035e-003,1
 403.944, 94.07667, 1.7121e-003,1
 404.91, 94.35833, 1.7206e-003,1
 405.861, 94.64000, 1.7286e-003,1
 406.814, 94.92167, 1.7371e-003,1
 407.773, 95.20333, 1.7454e-003,1
 408.726, 95.48500, 1.7540e-003,1
 409.681, 95.76667, 1.7622e-003,1
 410.626, 96.04833, 1.7704e-003,1
 411.577, 96.33000, 1.7786e-003,1
 412.527, 96.61167, 1.7867e-003,1
 413.466, 96.89333, 1.7949e-003,1
 414.408, 97.17500, 1.8030e-003,1
 415.357, 97.45667, 1.8111e-003,1
 416.3, 97.73833, 1.8198e-003,1
 417.245, 98.02000, 1.8280e-003,1
 418.176, 98.30167, 1.8361e-003,1
 419.111, 98.58333, 1.8440e-003,1
 420.051, 98.86500, 1.8521e-003,1
 420.989, 99.14667, 1.8601e-003,1
 421.915, 99.42833, 1.8680e-003,1
 422.855, 99.71000, 1.8758e-003,1
 423.792, 99.99167, 1.8836e-003,1
 424.717,100.273, 1.8918e-003,1
 425.649,100.555, 1.8997e-003,1
 426.582,100.837, 1.9079e-003,1
 427.513,101.118, 1.9158e-003,1
 428.443,101.4, 1.9239e-003,1
 429.378,101.682, 1.9316e-003,1
 430.291,101.963, 1.9392e-003,1
 431.227,102.245, 1.9474e-003,1
 432.151,102.527, 1.9555e-003,1
 433.07,102.808, 1.9632e-003,1
 433.987,103.09, 1.9712e-003,1
 434.916,103.372, 1.9794e-003,1
 435.844,103.653, 1.9871e-003,1
 436.76,103.935, 1.9949e-003,1
 437.682,104.217, 2.0027e-003,1
 438.604,104.498, 2.0104e-003,1
 439.53,104.78, 2.0186e-003,1
 440.452,105.062, 2.0262e-003,1
 441.368,105.343, 2.0341e-003,1
 442.299,105.625, 2.0421e-003,1
 443.209,105.907, 2.0499e-003,1
 444.121,106.188, 2.0582e-003,1
 445.035,106.47, 2.0657e-003,1
 445.942,106.752, 2.0735e-003,1
 446.851,107.033, 2.0816e-003,1
 447.764,107.315, 2.0891e-003,1
 448.675,107.597, 2.0971e-003,1
 449.586,107.878, 2.1049e-003,1
 450.494,108.16, 2.1125e-003,1
 451.419,108.442, 2.1205e-003,1
 452.315,108.723, 2.1280e-003,1
 453.218,109.005, 2.1354e-003,1
 454.128,109.287, 2.1437e-003,1
 455.029,109.568, 2.1516e-003,1
 455.935,109.85, 2.1595e-003,1
 456.836,110.132, 2.1667e-003,1
 457.743,110.413, 2.1748e-003,1
 458.641,110.695, 2.1828e-003,1
 459.541,110.977, 2.1902e-003,1
 460.446,111.258, 2.1979e-003,1
 461.345,111.54, 2.2060e-003,1
 462.251,111.822, 2.2140e-003,1
 463.147,112.103, 2.2215e-003,1
 464.055,112.385, 2.2294e-003,1
 464.947,112.667, 2.2368e-003,1
 465.839,112.948, 2.2444e-003,1
 466.738,113.23, 2.2519e-003,1
 467.624,113.512, 2.2596e-003,1
 468.523,113.793, 2.2673e-003,1
 469.414,114.075, 2.2748e-003,1
 470.318,114.357, 2.2823e-003,1
 471.201,114.638, 2.2901e-003,1
 472.09,114.92, 2.2979e-003,1
 472.989,115.202, 2.3061e-003,1
 473.871,115.483, 2.3130e-003,1
 474.757,115.765, 2.3205e-003,1
 475.631,116.047, 2.3278e-003,1
 476.519,116.328, 2.3355e-003,1
 477.406,116.61, 2.3434e-003,1
 478.283,116.892, 2.3511e-003,1
 479.166,117.173, 2.3583e-003,1
 480.052,117.455, 2.3657e-003,1
 480.928,117.737, 2.3735e-003,1
 481.814,118.018, 2.3809e-003,1
 482.698,118.3, 2.3884e-003,1
 483.572,118.582, 2.3956e-003,1
 484.459,118.863, 2.4032e-003,1
 485.332,119.145, 2.4107e-003,1
 486.204,119.427, 2.4180e-003,1
 487.078,119.708, 2.4254e-003,1
 487.946,119.99, 2.4328e-003,1
 488.82,120.272, 2.4405e-003,1
 489.697,120.553, 2.4480e-003,1
 490.562,120.835, 2.4554e-003,1
 491.435,121.117, 2.4630e-003,1
 492.314,121.398, 2.4701e-003,1
 493.184,121.68, 2.4773e-003,1
 494.052,121.962, 2.4849e-003,1
 494.923,122.243, 2.4922e-003,1
 495.798,122.525, 2.4999e-003,1
 496.67,122.807, 2.5071e-003,1
 497.543,123.088, 2.5145e-003,1
 498.413,123.37, 2.5217e-003,1
 499.279,123.652, 2.5292e-003,1
 500.143,123.933, 2.5366e-003,1
 501.013,124.215, 2.5439e-003,1
 501.871,124.497, 2.5512e-003,1
 502.736,124.778, 2.5589e-003,1
 503.604,125.06, 2.5658e-003,1
 504.462,125.342, 2.5733e-003,1
 505.322,125.623, 2.5803e-003,1
 506.17,125.905, 2.5876e-003,1
 507.026,126.187, 2.5947e-003,1
 507.896,126.468, 2.6019e-003,1
 508.751,126.75, 2.6090e-003,1
 509.608,127.032, 2.6164e-003,1
 510.469,127.313, 2.6238e-003,1
 511.323,127.595, 2.6308e-003,1
 512.18,127.877, 2.6382e-003,1
 513.039,128.158, 2.6459e-003,1
 513.896,128.44, 2.6532e-003,1
 514.744,128.722, 2.6614e-003,1
 515.583,129.003, 2.6693e-003,1
 516.431,129.285, 2.6768e-003,1
 517.272,129.567, 2.6850e-003,1
 518.105,129.848, 2.6921e-003,1
 518.934,130.13, 2.6998e-003,1
 519.759,130.412, 2.7070e-003,1
 520.591,130.693, 2.7140e-003,1
 521.417,130.975, 2.7212e-003,1
 522.257,131.257, 2.7280e-003,1
 523.101,131.538, 2.7347e-003,1
 523.956,131.82, 2.7417e-003,1
 524.81,132.102, 2.7482e-003,1
 525.686,132.383, 2.7552e-003,1
 526.574,132.665, 2.7622e-003,1
 527.45,132.947, 2.7688e-003,1
 528.34,133.228, 2.7764e-003,1
 529.221,133.51, 2.7830e-003,1
 530.099,133.792, 2.7908e-003,1
 530.98,134.073, 2.7981e-003,1
 531.854,134.355, 2.8048e-003,1
 532.724,134.637, 2.8125e-003,1
 533.6,134.918, 2.8201e-003,1
 534.461,135.2, 2.8273e-003,1
 535.32,135.482, 2.8347e-003,1
 536.178,135.763, 2.8418e-003,1
 537.03,136.045, 2.8490e-003,1
 537.89,136.327, 2.8559e-003,1
 538.747,136.608, 2.8630e-003,1
 539.61,136.89, 2.8705e-003,1
 540.464,137.172, 2.8777e-003,1
 541.318,137.453, 2.8851e-003,1
 542.164,137.735, 2.8923e-003,1
 543.01,138.017, 2.8997e-003,1
 543.851,138.298, 2.9066e-003,1
 544.69,138.58, 2.9137e-003,1
 545.526,138.862, 2.9209e-003,1
 546.363,139.143, 2.9279e-003,1
 547.2,139.425, 2.9353e-003,1
 548.034,139.707, 2.9425e-003,1
 548.865,139.988, 2.9494e-003,1
 549.699,140.27, 2.9566e-003,1
 550.527,140.552, 2.9635e-003,1
 551.353,140.833, 2.9705e-003,1
 552.181,141.115, 2.9778e-003,1
 553.012,141.397, 2.9849e-003,1
 553.846,141.678, 2.9919e-003,1
 554.671,141.96, 2.9989e-003,1
 555.503,142.242, 3.0060e-003,1
 556.33,142.523, 3.0129e-003,1
 557.15,142.805, 3.0197e-003,1
 557.972,143.087, 3.0267e-003,1
 558.79,143.368, 3.0336e-003,1
 559.609,143.65, 3.0407e-003,1
 560.418,143.932, 3.0470e-003,1
 561.242,144.213, 3.0542e-003,1
 562.063,144.495, 3.0616e-003,1
 562.885,144.777, 3.0684e-003,1
 563.7,145.058, 3.0753e-003,1
 564.512,145.34, 3.0824e-003,1
 565.332,145.622, 3.0891e-003,1
 566.141,145.903, 3.0965e-003,1
 566.949,146.185, 3.1034e-003,1
 567.762,146.467, 3.1105e-003,1
 568.582,146.748, 3.1180e-003,1
 569.39,147.03, 3.1244e-003,1
 570.204,147.312, 3.1320e-003,1
 571.017,147.593, 3.1389e-003,1
 571.838,147.875, 3.1463e-003,1
 572.648,148.157, 3.1537e-003,1
 573.463,148.438, 3.1611e-003,1
 574.268,148.72, 3.1683e-003,1
 575.075,149.002, 3.1753e-003,1
 575.881,149.283, 3.1820e-003,1
 576.696,149.565, 3.1891e-003,1
 577.506,149.847, 3.1963e-003,1
 578.318,150.128, 3.2031e-003,1
 579.121,150.41, 3.2101e-003,1
 579.933,150.692, 3.2175e-003,1
 580.751,150.973, 3.2242e-003,1
 581.547,151.255, 3.2312e-003,1
 582.367,151.537, 3.2384e-003,1
 583.167,151.818, 3.2451e-003,1
 583.975,152.1, 3.2525e-003,1
 584.789,152.382, 3.2592e-003,1
 585.592,152.663, 3.2658e-003,1
 586.397,152.945, 3.2728e-003,1
 587.198,153.227, 3.2797e-003,1
 587.998,153.508, 3.2866e-003,1
 588.805,153.79, 3.2937e-003,1
 589.611,154.072, 3.3004e-003,1
 590.405,154.353, 3.3072e-003,1
 591.212,154.635, 3.3145e-003,1
 592.017,154.917, 3.3212e-003,1
 592.829,155.198, 3.3280e-003,1
 593.618,155.48, 3.3349e-003,1
 594.415,155.762, 3.3416e-003,1
 595.217,156.043, 3.3489e-003,1
 596.011,156.325, 3.3557e-003,1
 596.816,156.607, 3.3623e-003,1
 597.607,156.888, 3.3692e-003,1
 598.405,157.17, 3.3758e-003,1
 599.199,157.452, 3.3829e-003,1
 600.004,157.733, 3.3898e-003,1
 600.799,158.015, 3.3966e-003,1
 601.598,158.297, 3.4036e-003,1
 602.396,158.578, 3.4104e-003,1
 603.188,158.86, 3.4171e-003,1
 603.979,159.142, 3.4239e-003,1
 604.773,159.423, 3.4307e-003,1
 605.572,159.705, 3.4374e-003,1
 606.36,159.987, 3.4444e-003,1
 607.151,160.268, 3.4508e-003,1
 607.938,160.55, 3.4576e-003,1
 608.731,160.832, 3.4644e-003,1
 609.525,161.113, 3.4713e-003,1
 610.313,161.395, 3.4781e-003,1
 611.105,161.677, 3.4851e-003,1
 611.898,161.958, 3.4917e-003,1
 612.689,162.24, 3.4985e-003,1
 613.48,162.522, 3.5053e-003,1
 614.276,162.803, 3.5121e-003,1
 615.065,163.085, 3.5192e-003,1
 615.858,163.367, 3.5258e-003,1
 616.647,163.648, 3.5328e-003,1
 617.439,163.93, 3.5403e-003,1
 618.222,164.212, 3.5471e-003,1
 619.018,164.493, 3.5536e-003,1
 619.81,164.775, 3.5605e-003,1
 620.589,165.057, 3.5673e-003,1
 621.373,165.338, 3.5750e-003,1
 622.155,165.62, 3.5819e-003,1
 622.938,165.902, 3.5890e-003,1
 623.705,166.183, 3.5961e-003,1
 624.468,166.465, 3.6033e-003,1
 625.237,166.747, 3.6105e-003,1
 625.998,167.028, 3.6178e-003,1
 626.762,167.31, 3.6245e-003,1
 627.528,167.592, 3.6310e-003,1
 628.286,167.873, 3.6379e-003,1
 629.065,168.155, 3.6444e-003,1
 629.848,168.437, 3.6513e-003,1
 630.634,168.718, 3.6577e-003,1
 631.439,169, 3.6646e-003,1
 632.247,169.282, 3.6709e-003,1
 633.053,169.563, 3.6780e-003,1
 633.87,169.845, 3.6849e-003,1
 634.682,170.127, 3.6918e-003,1
 635.509,170.408, 3.6985e-003,1
 636.31,170.69, 3.7055e-003,1
 637.119,170.972, 3.7120e-003,1
 637.924,171.253, 3.7189e-003,1
 638.721,171.535, 3.7258e-003,1
 639.517,171.817, 3.7324e-003,1
 640.314,172.098, 3.7397e-003,1
 641.101,172.38, 3.7463e-003,1
 641.898,172.662, 3.7531e-003,1
 642.688,172.943, 3.7594e-003,1
 643.472,173.225, 3.7663e-003,1
 644.274,173.507, 3.7735e-003,1
 645.065,173.788, 3.7799e-003,1
 645.852,174.07, 3.7866e-003,1
 646.632,174.352, 3.7930e-003,1
 647.423,174.633, 3.8000e-003,1
 648.21,174.915, 3.8063e-003,1
 648.992,175.197, 3.8132e-003,1
 649.769,175.478, 3.8202e-003,1
 650.554,175.76, 3.8268e-003,1
 651.331,176.042, 3.8336e-003,1
 652.109,176.323, 3.8402e-003,1
 652.884,176.605, 3.8471e-003,1
 653.66,176.887, 3.8533e-003,1
 654.432,177.168, 3.8605e-003,1
 655.207,177.45, 3.8671e-003,1
 655.973,177.732, 3.8734e-003,1
 656.747,178.013, 3.8800e-003,1
 657.504,178.295, 3.8865e-003,1
 658.277,178.577, 3.8932e-003,1
 659.047,178.858, 3.9000e-003,1
 659.829,179.14, 3.9064e-003,1
 660.595,179.422, 3.9128e-003,1
 661.366,179.703, 3.9195e-003,1
 662.137,179.985, 3.9261e-003,1
 662.903,180.267, 3.9328e-003,1
 663.667,180.548, 3.9395e-003,1
 664.433,180.83, 3.9460e-003,1
 665.189,181.112, 3.9528e-003,1
 665.956,181.393, 3.9592e-003,1
 666.722,181.675, 3.9661e-003,1
 667.485,181.957, 3.9725e-003,1
 668.245,182.238, 3.9788e-003,1
 669.01,182.52, 3.9855e-003,1
 669.77,182.802, 3.9925e-003,1
 670.528,183.083, 3.9989e-003,1
 671.287,183.365, 4.0054e-003,1
 672.049,183.647, 4.0118e-003,1
 672.811,183.928, 4.0186e-003,1
 673.562,184.21, 4.0254e-003,1
 674.31,184.492, 4.0322e-003,1
 675.058,184.773, 4.0391e-003,1
 675.801,185.055, 4.0461e-003,1
 676.543,185.337, 4.0533e-003,1
 677.272,185.618, 4.0598e-003,1
 678.011,185.9, 4.0665e-003,1
 678.751,186.182, 4.0728e-003,1
 679.489,186.463, 4.0792e-003,1
 680.218,186.745, 4.0854e-003,1
 680.96,187.027, 4.0917e-003,1
 681.715,187.308, 4.0979e-003,1
 682.469,187.59, 4.1042e-003,1
 683.238,187.872, 4.1104e-003,1
 684.011,188.153, 4.1166e-003,1
 684.783,188.435, 4.1227e-003,1
 685.559,188.717, 4.1289e-003,1
 686.341,188.998, 4.1352e-003,1
 687.112,189.28, 4.1419e-003,1
 687.888,189.562, 4.1481e-003,1
 688.658,189.843, 4.1542e-003,1
 689.415,190.125, 4.1605e-003,1
 690.177,190.407, 4.1673e-003,1
 690.945,190.688, 4.1736e-003,1
 691.7,190.97, 4.1799e-003,1
 692.466,191.252, 4.1859e-003,1
 693.233,191.533, 4.1924e-003,1
 693.989,191.815, 4.1992e-003,1
 694.745,192.097, 4.2059e-003,1
 695.497,192.378, 4.2118e-003,1
 696.248,192.66, 4.2180e-003,1
 696.999,192.942, 4.2245e-003,1
 697.749,193.223, 4.2308e-003,1
 698.5,193.505, 4.2374e-003,1
 699.258,193.787, 4.2434e-003,1
 699.987,194.068, 4.2495e-003,1
 700.732,194.35, 4.2558e-003,1
 701.477,194.632, 4.2624e-003,1
 702.216,194.913, 4.2688e-003,1
 702.96,195.195, 4.2752e-003,1
 703.701,195.477, 4.2808e-003,1
 704.45,195.758, 4.2872e-003,1
 705.182,196.04, 4.2936e-003,1
 705.921,196.322, 4.2998e-003,1
 706.655,196.603, 4.3059e-003,1
 707.389,196.885, 4.3120e-003,1
 708.13,197.167, 4.3187e-003,1
 708.874,197.448, 4.3243e-003,1
 709.606,197.73, 4.3310e-003,1
 710.341,198.012, 4.3368e-003,1
 711.092,198.293, 4.3436e-003,1
 711.825,198.575, 4.3500e-003,1
 712.571,198.857, 4.3564e-003,1
 713.308,199.138, 4.3627e-003,1
 714.046,199.42, 4.3692e-003,1
 714.79,199.702, 4.3752e-003,1
 715.518,199.983, 4.3814e-003,1
 716.254,200.265, 4.3874e-003,1
 716.983,200.547, 4.3939e-003,1
 717.723,200.828, 4.4001e-003,1
 718.457,201.11, 4.4066e-003,1
 719.199,201.392, 4.4128e-003,1
 719.928,201.673, 4.4191e-003,1
 720.665,201.955, 4.4254e-003,1
 721.399,202.237, 4.4312e-003,1
 722.139,202.518, 4.4375e-003,1
 722.874,202.8, 4.4438e-003,1
 723.606,203.082, 4.4499e-003,1
 724.338,203.363, 4.4564e-003,1
 725.075,203.645, 4.4628e-003,1
 725.806,203.927, 4.4690e-003,1
 726.546,204.208, 4.4754e-003,1
 727.28,204.49, 4.4814e-003,1
 728.011,204.772, 4.4876e-003,1
 728.752,205.053, 4.4936e-003,1
 729.483,205.335, 4.4998e-003,1
 730.225,205.617, 4.5063e-003,1
 730.96,205.898, 4.5125e-003,1
 731.699,206.18, 4.5192e-003,1
 732.435,206.462, 4.5255e-003,1
 733.168,206.743, 4.5316e-003,1
 733.895,207.025, 4.5378e-003,1
 734.63,207.307, 4.5444e-003,1
 735.358,207.588, 4.5503e-003,1
 736.086,207.87, 4.5565e-003,1
 736.827,208.152, 4.5631e-003,1
 737.561,208.433, 4.5692e-003,1
 738.302,208.715, 4.5750e-003,1
 739.029,208.997, 4.5816e-003,1
 739.761,209.278, 4.5879e-003,1
 740.486,209.56, 4.5943e-003,1
 741.217,209.842, 4.6009e-003,1
 741.945,210.123, 4.6072e-003,1
 742.671,210.405, 4.6134e-003,1
 743.406,210.687, 4.6196e-003,1
 744.138,210.968, 4.6263e-003,1
 744.866,211.25, 4.6319e-003,1
 745.59,211.532, 4.6384e-003,1
 746.32,211.813, 4.6449e-003,1
 747.045,212.095, 4.6514e-003,1
 747.77,212.377, 4.6578e-003,1
 748.494,212.658, 4.6642e-003,1
 749.211,212.94, 4.6714e-003,1
 749.929,213.222, 4.6778e-003,1
 750.649,213.503, 4.6846e-003,1
 751.359,213.785, 4.6907e-003,1
 752.065,214.067, 4.6973e-003,1
 752.771,214.348, 4.7036e-003,1
 753.478,214.63, 4.7100e-003,1
 754.189,214.912, 4.7165e-003,1
 754.902,215.193, 4.7225e-003,1
 755.625,215.475, 4.7285e-003,1
 756.347,215.757, 4.7346e-003,1
 757.074,216.038, 4.7408e-003,1
 757.808,216.32, 4.7468e-003,1
 758.551,216.602, 4.7529e-003,1
 759.299,216.883, 4.7592e-003,1
 760.045,217.165, 4.7655e-003,1
 760.784,217.447, 4.7718e-003,1
 761.526,217.728, 4.7777e-003,1
 762.265,218.01, 4.7840e-003,1
 763.001,218.292, 4.7902e-003,1
 763.74,218.573, 4.7968e-003,1
 764.487,218.855, 4.8026e-003,1
 765.218,219.137, 4.8090e-003,1
 765.949,219.418, 4.8155e-003,1
 766.679,219.7, 4.8217e-003,1
 767.413,219.982, 4.8276e-003,1
 768.155,220.263, 4.8340e-003,1
 768.889,220.545, 4.8402e-003,1
 769.624,220.827, 4.8467e-003,1
 770.358,221.108, 4.8528e-003,1
 771.087,221.39, 4.8592e-003,1
 771.815,221.672, 4.8652e-003,1
 772.544,221.953, 4.8716e-003,1
 773.271,222.235, 4.8779e-003,1
 773.988,222.517, 4.8840e-003,1
 774.716,222.798, 4.8903e-003,1
 775.433,223.08, 4.8967e-003,1
 776.136,223.362, 4.9026e-003,1
 776.824,223.643, 4.9091e-003,1
 777.517,223.925, 4.9152e-003,1
 778.208,224.207, 4.9210e-003,1
 778.912,224.488, 4.9271e-003,1
 779.612,224.77, 4.9333e-003,1
 780.321,225.052, 4.9393e-003,1
 781.027,225.333, 4.9455e-003,1
 781.732,225.615, 4.9518e-003,1
 782.431,225.897, 4.9578e-003,1
 783.123,226.178, 4.9640e-003,1
 783.813,226.46, 4.9699e-003,1
 784.495,226.742, 4.9762e-003,1
 785.172,227.023, 4.9824e-003,1
 785.858,227.305, 4.9889e-003,1
 786.541,227.587, 4.9947e-003,1
 787.215,227.868, 5.0005e-003,1
 787.892,228.15, 5.0062e-003,1
 788.566,228.432, 5.0121e-003,1
 789.24,228.713, 5.0178e-003,1
 789.917,228.995, 5.0229e-003,1
 790.596,229.277, 5.0287e-003,1
 791.282,229.558, 5.0348e-003,1
 791.967,229.84, 5.0404e-003,1
 792.662,230.122, 5.0466e-003,1
 793.349,230.403, 5.0524e-003,1
 794.037,230.685, 5.0583e-003,1
 794.708,230.967, 5.0638e-003,1
 795.379,231.248, 5.0697e-003,1
 796.059,231.53, 5.0757e-003,1
 796.725,231.812, 5.0815e-003,1
 797.383,232.093, 5.0870e-003,1
 798.049,232.375, 5.0930e-003,1
 798.705,232.657, 5.0987e-003,1
 799.354,232.938, 5.1042e-003,1
 800.016,233.22, 5.1099e-003,1
 800.685,233.502, 5.1156e-003,1
 801.349,233.783, 5.1211e-003,1
 802.012,234.065, 5.1270e-003,1
 802.692,234.347, 5.1321e-003,1
 803.383,234.628, 5.1383e-003,1
 804.069,234.91, 5.1435e-003,1
 804.763,235.192, 5.1500e-003,1
 805.455,235.473, 5.1556e-003,1
 806.134,235.755, 5.1611e-003,1
 806.822,236.037, 5.1666e-003,1
 807.505,236.318, 5.1722e-003,1
 808.207,236.6, 5.1783e-003,1
 808.896,236.882, 5.1837e-003,1
 809.61,237.163, 5.1895e-003,1
 810.326,237.445, 5.1953e-003,1
 811.04,237.727, 5.2015e-003,1
 811.753,238.008, 5.2075e-003,1
 812.457,238.29, 5.2137e-003,1
 813.152,238.572, 5.2201e-003,1
 813.842,238.853, 5.2262e-003,1
 814.531,239.135, 5.2324e-003,1
 815.211,239.417, 5.2385e-003,1
 815.888,239.698, 5.2445e-003,1
 816.578,239.98, 5.2505e-003,1
 817.268,240.262, 5.2564e-003,1
 817.961,240.543, 5.2620e-003,1
 818.67,240.825, 5.2677e-003,1
 819.379,241.107, 5.2736e-003,1
 820.108,241.388, 5.2798e-003,1
 820.827,241.67, 5.2852e-003,1
 821.554,241.952, 5.2911e-003,1
 822.286,242.233, 5.2970e-003,1
 823.029,242.515, 5.3031e-003,1
 823.761,242.797, 5.3090e-003,1
 824.498,243.078, 5.3146e-003,1
 825.241,243.36, 5.3207e-003,1
 825.982,243.642, 5.3267e-003,1
 826.721,243.923, 5.3327e-003,1
 827.459,244.205, 5.3394e-003,1
 828.204,244.487, 5.3454e-003,1
 828.943,244.768, 5.3515e-003,1
 829.687,245.05, 5.3573e-003,1
 830.431,245.332, 5.3637e-003,1
 831.168,245.613, 5.3696e-003,1
 831.915,245.895, 5.3758e-003,1
 832.651,246.177, 5.3819e-003,1
 833.403,246.458, 5.3884e-003,1
 834.142,246.74, 5.3945e-003,1
 834.893,247.022, 5.4012e-003,1
 835.631,247.303, 5.4066e-003,1
 836.369,247.585, 5.4133e-003,1
 837.104,247.867, 5.4193e-003,1
 837.846,248.148, 5.4251e-003,1
 838.589,248.43, 5.4313e-003,1
 839.333,248.712, 5.4375e-003,1
 840.076,248.993, 5.4441e-003,1
 840.823,249.275, 5.4504e-003,1
 841.57,249.557, 5.4569e-003,1
 842.314,249.838, 5.4635e-003,1
 843.054,250.12, 5.4699e-003,1
 843.801,250.402, 5.4762e-003,1
 844.544,250.683, 5.4822e-003,1
 845.283,250.965, 5.4883e-003,1
 846.033,251.247, 5.4947e-003,1
 846.776,251.528, 5.5014e-003,1
 847.517,251.81, 5.5079e-003,1
 848.258,252.092, 5.5141e-003,1
 849.005,252.373, 5.5201e-003,1
 849.756,252.655, 5.5271e-003,1
 850.513,252.937, 5.5335e-003,1
 851.261,253.218, 5.5397e-003,1
 852.014,253.5, 5.5464e-003,1
 852.761,253.782, 5.5528e-003,1
 853.504,254.063, 5.5592e-003,1
 854.247,254.345, 5.5659e-003,1
 854.995,254.627, 5.5722e-003,1
 855.742,254.908, 5.5789e-003,1
 856.493,255.19, 5.5857e-003,1
 857.236,255.472, 5.5919e-003,1
 857.98,255.753, 5.5976e-003,1
 858.732,256.035, 5.6047e-003,1
 859.48,256.317, 5.6111e-003,1
 860.229,256.598, 5.6181e-003,1
 860.975,256.88, 5.6245e-003,1
 861.72,257.162, 5.6308e-003,1
 862.461,257.443, 5.6381e-003,1
 863.206,257.725, 5.6440e-003,1
 863.952,258.007, 5.6505e-003,1
 864.692,258.288, 5.6574e-003,1
 865.445,258.57, 5.6643e-003,1
 866.192,258.852, 5.6708e-003,1
 866.933,259.133, 5.6770e-003,1
 867.681,259.415, 5.6833e-003,1
 868.436,259.697, 5.6902e-003,1
 869.194,259.978, 5.6974e-003,1
 869.941,260.26, 5.7040e-003,1
 870.685,260.542, 5.7109e-003,1
 871.424,260.823, 5.7175e-003,1
 872.137,261.105, 5.7243e-003,1
 872.866,261.387, 5.7316e-003,1
 873.575,261.668, 5.7377e-003,1
 874.28,261.95, 5.7445e-003,1
 874.968,262.232, 5.7514e-003,1
 875.63,262.513, 5.7578e-003,1
 876.268,262.795, 5.7634e-003,1
 876.895,263.077, 5.7695e-003,1
 877.52,263.358, 5.7761e-003,1
 878.134,263.64, 5.7827e-003,1
 878.756,263.922, 5.7882e-003,1
 879.384,264.203, 5.7939e-003,1
 880.044,264.485, 5.7994e-003,1
 880.755,264.767, 5.8054e-003,1
 881.487,265.048, 5.8107e-003,1
 882.226,265.33, 5.8164e-003,1
 882.955,265.612, 5.8239e-003,1
 883.683,265.893, 5.8300e-003,1
 884.431,266.175, 5.8360e-003,1
 885.197,266.457, 5.8423e-003,1
 885.984,266.738, 5.8490e-003,1
 886.78,267.02, 5.8555e-003,1
 887.583,267.302, 5.8625e-003,1
 888.365,267.583, 5.8688e-003,1
 889.156,267.865, 5.8760e-003,1
 889.926,268.147, 5.8829e-003,1
 890.699,268.428, 5.8895e-003,1
 891.455,268.71, 5.8961e-003,1
 892.209,268.992, 5.9029e-003,1
 892.96,269.273, 5.9099e-003,1
 893.704,269.555, 5.9162e-003,1
 894.448,269.837, 5.9227e-003,1
 895.195,270.118, 5.9297e-003,1
 895.937,270.4, 5.9361e-003,1
 896.671,270.682, 5.9428e-003,1
 897.416,270.963, 5.9487e-003,1
 898.144,271.245, 5.9551e-003,1
 898.888,271.527, 5.9612e-003,1
 899.626,271.808, 5.9675e-003,1
 900.362,272.09, 5.9744e-003,1
 901.101,272.372, 5.9808e-003,1
 901.836,272.653, 5.9865e-003,1
 902.569,272.935, 5.9931e-003,1
 903.302,273.217, 5.9997e-003,1
 904.035,273.498, 6.0063e-003,1
 904.758,273.78, 6.0125e-003,1
 905.492,274.062, 6.0188e-003,1
 906.22,274.343, 6.0255e-003,1
 906.945,274.625, 6.0317e-003,1
 907.675,274.907, 6.0382e-003,1
 908.402,275.188, 6.0451e-003,1
 909.132,275.47, 6.0512e-003,1
 909.85,275.752, 6.0573e-003,1
 910.564,276.033, 6.0640e-003,1
 911.268,276.315, 6.0701e-003,1
 911.973,276.597, 6.0763e-003,1
 912.671,276.878, 6.0826e-003,1
 913.379,277.16, 6.0893e-003,1
 914.064,277.442, 6.0961e-003,1
 914.733,277.723, 6.1017e-003,1
 915.401,278.005, 6.1081e-003,1
 916.065,278.287, 6.1136e-003,1
 916.732,278.568, 6.1197e-003,1
 917.392,278.85, 6.1262e-003,1
 918.048,279.132, 6.1320e-003,1
 918.705,279.413, 6.1378e-003,1
 919.365,279.695, 6.1435e-003,1
 920.03,279.977, 6.1492e-003,1
 920.691,280.258, 6.1557e-003,1
 921.326,280.54, 6.1616e-003,1
 921.927,280.822, 6.1679e-003,1
 922.475,281.103, 6.1742e-003,1
 922.984,281.385, 6.1802e-003,1
 923.485,281.667, 6.1856e-003,1
 923.994,281.948, 6.1908e-003,1
 924.513,282.23, 6.1944e-003,1
 925.093,282.512, 6.1986e-003,1
 925.728,282.793, 6.2037e-003,1
 926.4,283.075, 6.2085e-003,1
 927.1,283.357, 6.2144e-003,1
 927.809,283.638, 6.2206e-003,1
 928.527,283.92, 6.2266e-003,1
 929.243,284.202, 6.2333e-003,1
 929.945,284.483, 6.2395e-003,1
 930.626,284.765, 6.2458e-003,1
 931.311,285.047, 6.2519e-003,1
 931.987,285.328, 6.2578e-003,1
 932.67,285.61, 6.2639e-003,1
 933.355,285.892, 6.2697e-003,1
 934.05,286.173, 6.2754e-003,1
 934.759,286.455, 6.2812e-003,1
 935.478,286.737, 6.2871e-003,1
 936.225,287.018, 6.2924e-003,1
 936.976,287.3, 6.2982e-003,1
 937.711,287.582, 6.3045e-003,1
 938.462,287.863, 6.3116e-003,1
 939.199,288.145, 6.3174e-003,1
 939.925,288.427, 6.3241e-003,1
 940.664,288.708, 6.3298e-003,1
 941.412,288.99, 6.3358e-003,1
 942.155,289.272, 6.3415e-003,1
 942.895,289.553, 6.3485e-003,1
 943.64,289.835, 6.3544e-003,1
 944.37,290.117, 6.3605e-003,1
 945.105,290.398, 6.3665e-003,1
 945.831,290.68, 6.3729e-003,1
 946.559,290.962, 6.3786e-003,1
 947.292,291.243, 6.3853e-003,1
 948.029,291.525, 6.3908e-003,1
 948.766,291.807, 6.3968e-003,1
 949.512,292.088, 6.4032e-003,1
 950.256,292.37, 6.4091e-003,1
 951.006,292.652, 6.4158e-003,1
 951.747,292.933, 6.4219e-003,1
 952.494,293.215, 6.4282e-003,1
 953.235,293.497, 6.4343e-003,1
 953.972,293.778, 6.4410e-003,1
 954.712,294.06, 6.4472e-003,1
 955.457,294.342, 6.4533e-003,1
 956.211,294.623, 6.4599e-003,1
 956.959,294.905, 6.4655e-003,1
 957.716,295.187, 6.4716e-003,1
 958.467,295.468, 6.4776e-003,1
 959.207,295.75, 6.4850e-003,1
 959.934,296.032, 6.4908e-003,1
 960.673,296.313, 6.4972e-003,1
 961.413,296.595, 6.5033e-003,1
 962.162,296.877, 6.5095e-003,1
 962.913,297.158, 6.5166e-003,1
 963.66,297.44, 6.5229e-003,1
 964.407,297.722, 6.5292e-003,1
 965.16,298.003, 6.5355e-003,1
 965.916,298.285, 6.5422e-003,1
 966.673,298.567, 6.5488e-003,1
 967.419,298.848, 6.5562e-003,1
 968.161,299.13, 6.5630e-003,1
 968.913,299.412, 6.5690e-003,1
 969.669,299.693, 6.5758e-003,1
 970.426,299.975, 6.5823e-003,1
 971.153,300.257, 6.5889e-003,1
 971.873,300.538, 6.5953e-003,1
 972.597,300.82, 6.6022e-003,1
 973.316,301.102, 6.6082e-003,1
 974.034,301.383, 6.6141e-003,1
 974.751,301.665, 6.6209e-003,1
 975.465,301.947, 6.6271e-003,1
 976.18,302.228, 6.6328e-003,1
 976.918,302.51, 6.6395e-003,1
 977.659,302.792, 6.6455e-003,1
 978.421,303.073, 6.6507e-003,1
 979.198,303.355, 6.6578e-003,1
 979.986,303.637, 6.6641e-003,1
 980.754,303.918, 6.6704e-003,1
 981.523,304.2, 6.6771e-003,1
 982.293,304.482, 6.6838e-003,1
 983.054,304.763, 6.6902e-003,1
 983.838,305.045, 6.6964e-003,1
 984.612,305.327, 6.7022e-003,1
 985.406,305.608, 6.7090e-003,1
 986.182,305.89, 6.7155e-003,1
 986.957,306.172, 6.7223e-003,1
 987.724,306.453, 6.7291e-003,1
 988.489,306.735, 6.7355e-003,1
 989.244,307.017, 6.7414e-003,1
 990.011,307.298, 6.7487e-003,1
 990.761,307.58, 6.7545e-003,1
 991.536,307.862, 6.7605e-003,1
 992.301,308.143, 6.7670e-003,1
 993.059,308.425, 6.7736e-003,1
 993.832,308.707, 6.7800e-003,1
 994.604,308.988, 6.7863e-003,1
 995.374,309.27, 6.7922e-003,1
 996.147,309.552, 6.7985e-003,1
 996.905,309.833, 6.8049e-003,1
 997.665,310.115, 6.8115e-003,1
 998.412,310.397, 6.8178e-003,1
 999.184,310.678, 6.8239e-003,1
 999.963,310.96, 6.8304e-003,1
1000.74,311.242, 6.8363e-003,1
1001.52,311.523, 6.8427e-003,1
1002.28,311.805, 6.8484e-003,1
1003.04,312.087, 6.8548e-003,1
1003.78,312.368, 6.8612e-003,1
1004.54,312.65, 6.8677e-003,1
1005.3,312.932, 6.8737e-003,1
1006.06,313.213, 6.8803e-003,1
1006.81,313.495, 6.8862e-003,1
1007.56,313.777, 6.8917e-003,1
1008.33,314.058, 6.8982e-003,1
1009.09,314.34, 6.9046e-003,1
1009.86,314.622, 6.9110e-003,1
1010.63,314.903, 6.9169e-003,1
1011.39,315.185, 6.9225e-003,1
1012.15,315.467, 6.9295e-003,1
1012.91,315.748, 6.9357e-003,1
1013.66,316.03, 6.9426e-003,1
1014.39,316.312, 6.9483e-003,1
1015.12,316.593, 6.9545e-003,1
1015.84,316.875, 6.9609e-003,1
1016.53,317.157, 6.9674e-003,1
1017.22,317.438, 6.9731e-003,1
1017.91,317.72, 6.9787e-003,1
1018.63,318.002, 6.9850e-003,1
1019.33,318.283, 6.9908e-003,1
1020.01,318.565, 6.9968e-003,1
1020.7,318.847, 7.0033e-003,1
1021.4,319.128, 7.0085e-003,1
1022.11,319.41, 7.0136e-003,1
1022.83,319.692, 7.0198e-003,1
1023.56,319.973, 7.0251e-003,1
1024.3,320.255, 7.0303e-003,1
1025.05,320.537, 7.0360e-003,1
1025.82,320.818, 7.0413e-003,1
1026.6,321.1, 7.0475e-003,1
1027.36,321.382, 7.0530e-003,1
1028.14,321.663, 7.0597e-003,1
1028.93,321.945, 7.0660e-003,1
1029.72,322.227, 7.0722e-003,1
1030.5,322.508, 7.0775e-003,1
1031.27,322.79, 7.0846e-003,1
1032.04,323.072, 7.0903e-003,1
1032.82,323.353, 7.0956e-003,1
1033.63,323.635, 7.1008e-003,1
1034.45,323.917, 7.1077e-003,1
1035.27,324.198, 7.1137e-003,1
1036.08,324.48, 7.1203e-003,1
1036.83,324.762, 7.1270e-003,1
1037.56,325.043, 7.1330e-003,1
1038.28,325.325, 7.1391e-003,1
1039.03,325.607, 7.1442e-003,1
1039.78,325.888, 7.1493e-003,1
1040.55,326.17, 7.1546e-003,1
1041.34,326.452, 7.1595e-003,1
1042.1,326.733, 7.1659e-003,1
1042.85,327.015, 7.1722e-003,1
1043.58,327.297, 7.1783e-003,1
1044.31,327.578, 7.1830e-003,1
1045.06,327.86, 7.1887e-003,1
1045.81,328.142, 7.1937e-003,1
1046.57,328.423, 7.2005e-003,1
1047.35,328.705, 7.2060e-003,1
1048.17,328.987, 7.2109e-003,1
1049.01,329.268, 7.2168e-003,1
1049.85,329.55, 7.2227e-003,1
1050.68,329.832, 7.2286e-003,1
1051.52,330.113, 7.2342e-003,1
1052.39,330.395, 7.2405e-003,1
1053.26,330.677, 7.2463e-003,1
1054.12,330.958, 7.2527e-003,1
1054.96,331.24, 7.2590e-003,1
1055.8,331.522, 7.2652e-003,1
1056.64,331.803, 7.2720e-003,1
1057.46,332.085, 7.2773e-003,1
1058.29,332.367, 7.2841e-003,1
1059.1,332.648, 7.2901e-003,1
1059.9,332.93, 7.2959e-003,1
1060.71,333.212, 7.3022e-003,1
1061.5,333.493, 7.3085e-003,1
1062.27,333.775, 7.3149e-003,1
1063.04,334.057, 7.3207e-003,1
1063.8,334.338, 7.3273e-003,1
1064.56,334.62, 7.3321e-003,1
1065.3,334.902, 7.3379e-003,1
1066.03,335.183, 7.3440e-003,1
1066.75,335.465, 7.3500e-003,1
1067.46,335.747, 7.3548e-003,1
1068.16,336.028, 7.3607e-003,1
1068.86,336.31, 7.3660e-003,1
1069.62,336.592, 7.3708e-003,1
1070.42,336.873, 7.3751e-003,1
1071.22,337.155, 7.3805e-003,1
1072.01,337.437, 7.3870e-003,1
1072.79,337.718, 7.3933e-003,1
1073.56,338, 7.3980e-003,1
1074.33,338.282, 7.4032e-003,1
1075.11,338.563, 7.4091e-003,1
1075.88,338.845, 7.4149e-003,1
1076.65,339.127, 7.4205e-003,1
1077.4,339.408, 7.4264e-003,1
1078.14,339.69, 7.4308e-003,1
1078.86,339.972, 7.4360e-003,1
1079.59,340.253, 7.4411e-003,1
1080.32,340.535, 7.4463e-003,1
1081.07,340.817, 7.4515e-003,1
1081.81,341.098, 7.4568e-003,1
1082.53,341.38, 7.4622e-003,1
1083.24,341.662, 7.4674e-003,1
1083.93,341.943, 7.4726e-003,1
1084.59,342.225, 7.4772e-003,1
1085.22,342.507, 7.4816e-003,1
1085.85,342.788, 7.4859e-003,1
1086.49,343.07, 7.4898e-003,1
1087.23,343.352, 7.4936e-003,1
1088.02,343.633, 7.4984e-003,1
1088.85,343.915, 7.5035e-003,1
1089.68,344.197, 7.5077e-003,1
1090.53,344.478, 7.5136e-003,1
1091.37,344.76, 7.5193e-003,1
1092.19,345.042, 7.5254e-003,1
1093.02,345.323, 7.5309e-003,1
1093.82,345.605, 7.5353e-003,1
1094.63,345.887, 7.5409e-003,1
1095.5,346.168, 7.5462e-003,1
1096.35,346.45, 7.5523e-003,1
1097.16,346.732, 7.5581e-003,1
1097.94,347.013, 7.5630e-003,1
1098.73,347.295, 7.5683e-003,1
1099.49,347.577, 7.5747e-003,1
1100.24,347.858, 7.5800e-003,1
1100.97,348.14, 7.5846e-003,1
1101.71,348.422, 7.5890e-003,1
1102.44,348.703, 7.5952e-003,1
1103.19,348.985, 7.5999e-003,1
1103.95,349.267, 7.6043e-003,1
1104.73,349.548, 7.6088e-003,1
1105.57,349.83, 7.6148e-003,1
1106.37,350.112, 7.6205e-003,1
1107.12,350.393, 7.6258e-003,1
1107.86,350.675, 7.6321e-003,1
1108.61,350.957, 7.6372e-003,1
1109.38,351.238, 7.6417e-003,1
1110.16,351.52, 7.6468e-003,1
1110.93,351.802, 7.6523e-003,1
1111.69,352.083, 7.6590e-003,1
1112.47,352.365, 7.6628e-003,1
1113.25,352.647, 7.6689e-003,1
1113.99,352.928, 7.6752e-003,1
1114.73,353.21, 7.6799e-003,1
1115.47,353.492, 7.6845e-003,1
1116.19,353.773, 7.6894e-003,1
1116.95,354.055, 7.6934e-003,1
1117.74,354.337, 7.6994e-003,1
1118.5,354.618, 7.7047e-003,1
1119.24,354.9, 7.7097e-003,1
1120.03,355.182, 7.7139e-003,1
1120.9,355.463, 7.7191e-003,1
1121.81,355.745, 7.7245e-003,1
1122.68,356.027, 7.7317e-003,1
1123.52,356.308, 7.7375e-003,1
1124.31,356.59, 7.7441e-003,1
1125.06,356.872, 7.7497e-003,1
1125.78,357.153, 7.7546e-003,1
1126.47,357.435, 7.7605e-003,1
1127.19,357.717, 7.7649e-003,1
1127.93,357.998, 7.7688e-003,1
1128.72,358.28, 7.7745e-003,1
1129.53,358.562, 7.7792e-003,1
1130.33,358.843, 7.7846e-003,1
1131.11,359.125, 7.7909e-003,1
1131.84,359.407, 7.7962e-003,1
1132.58,359.688, 7.8016e-003,1
1133.36,359.97, 7.8064e-003,1
1134.19,360.252, 7.8109e-003,1
1135.06,360.533, 7.8166e-003,1
1135.91,360.815, 7.8220e-003,1
1136.73,361.097, 7.8283e-003,1
1137.5,361.378, 7.8344e-003,1
1138.19,361.66, 7.8401e-003,1
1138.81,361.942, 7.8466e-003,1
1139.48,362.223, 7.8503e-003,1
1140.19,362.505, 7.8539e-003,1
1140.93,362.787, 7.8591e-003,1
1141.68,363.068, 7.8648e-003,1
1142.49,363.35, 7.8696e-003,1
1143.37,363.632, 7.8740e-003,1
1144.29,363.913, 7.8811e-003,1
1145.17,364.195, 7.8880e-003,1
1146,364.477, 7.8945e-003,1
1146.74,364.758, 7.9018e-003,1
1147.39,365.04, 7.9071e-003,1
1148.06,365.322, 7.9118e-003,1
1148.8,365.603, 7.9162e-003,1
1149.61,365.885, 7.9205e-003,1
1150.4,366.167, 7.9273e-003,1
1151.1,366.448, 7.9338e-003,1
1151.82,366.73, 7.9385e-003,1
1152.7,367.012, 7.9427e-003,1
1153.77,367.293, 7.9474e-003,1
1154.8,367.575, 7.9559e-003,1
1155.65,367.857, 7.9654e-003,1
1156.29,368.138, 7.9733e-003,1
1156.84,368.42, 7.9782e-003,1
1157.46,368.702, 7.9826e-003,1
1158.19,368.983, 7.9869e-003,1
1158.97,369.265, 7.9904e-003,1
1159.92,369.547, 7.9958e-003,1
1160.85,369.828, 8.0038e-003,1
1161.73,370.11, 8.0115e-003,1
1162.55,370.392, 8.0185e-003,1
1163.35,370.673, 8.0252e-003,1
1164.3,370.955, 8.0297e-003,1
1165.44,371.237, 8.0358e-003,1
1166.65,371.518, 8.0440e-003,1
1167.85,371.8, 8.0531e-003,1
1169.01,372.082, 8.0630e-003,1
1170.09,372.363, 8.0723e-003,1
1171.05,372.645, 8.0814e-003,1
1171.89,372.927, 8.0895e-003,1
1172.67,373.208, 8.0961e-003,1
1173.44,373.49, 8.1032e-003,1
1174.19,373.772, 8.1095e-003,1
1174.97,374.053, 8.1163e-003,1
1175.8,374.335, 8.1225e-003,1
1176.66,374.617, 8.1298e-003,1
1177.5,374.898, 8.1371e-003,1
1178.31,375.18, 8.1447e-003,1
1179.08,375.462, 8.1519e-003,1
1179.84,375.743, 8.1591e-003,1
1180.58,376.025, 8.1657e-003,1
1181.31,376.307, 8.1727e-003,1
1182.05,376.588, 8.1798e-003,1
1182.79,376.87, 8.1866e-003,1
1183.51,377.152, 8.1934e-003,1
1184.26,377.433, 8.2001e-003,1
1184.98,377.715, 8.2069e-003,1
1185.7,377.997, 8.2142e-003,1
1186.42,378.278, 8.2212e-003,1
1187.14,378.56, 8.2280e-003,1
1187.85,378.842, 8.2341e-003,1
1188.57,379.123, 8.2409e-003,1
1189.3,379.405, 8.2475e-003,1
1190.05,379.687, 8.2545e-003,1
1190.79,379.968, 8.2612e-003,1
1191.52,380.25, 8.2682e-003,1
1192.24,380.532, 8.2749e-003,1
1192.95,380.813, 8.2817e-003,1
1193.68,381.095, 8.2889e-003,1
1194.37,381.377, 8.2953e-003,1
1195.07,381.658, 8.3021e-003,1
1195.77,381.94, 8.3088e-003,1
1196.48,382.222, 8.3156e-003,1
1197.19,382.503, 8.3223e-003,1
1197.9,382.785, 8.3291e-003,1
1198.61,383.067, 8.3359e-003,1
1199.35,383.348, 8.3425e-003,1
1200.09,383.63, 8.3495e-003,1
1200.85,383.912, 8.3568e-003,1
1201.63,384.193, 8.3640e-003,1
1202.43,384.475, 8.3714e-003,1
1203.23,384.757, 8.3785e-003,1
1204.01,385.038, 8.3865e-003,1
1204.81,385.32, 8.3947e-003,1
1205.6,385.602, 8.4024e-003,1
1206.41,385.883, 8.4095e-003,1
1207.22,386.165, 8.4171e-003,1
1208.04,386.447, 8.4246e-003,1
1208.72,386.682, 8.4313e-003,2
1209.03,386.812, 8.4355e-003,2
1209.05,386.942, 8.4431e-003,2
1208.57,387.072, 8.4529e-003,2
1207.49,387.202, 8.4622e-003,2
1205.81,387.332, 8.4687e-003,2
1203.61,387.462, 8.4692e-003,2
1200.96,387.592, 8.4640e-003,2
1197.97,387.722, 8.4538e-003,2
1194.73,387.852, 8.4388e-003,2
1191.31,387.982, 8.4209e-003,2
1187.73,388.112, 8.3998e-003,2
1184.1,388.242, 8.3770e-003,2
1180.44,388.372, 8.3525e-003,2
1176.79,388.502, 8.3273e-003,2
1173.17,388.632, 8.3014e-003,2
1169.6,388.762, 8.2758e-003,2
1166.05,388.892, 8.2506e-003,2
1162.52,389.022, 8.2257e-003,2
1159.02,389.152, 8.2011e-003,2
1155.53,389.282, 8.1772e-003,2
1152.05,389.412, 8.1535e-003,2
1148.55,389.542, 8.1299e-003,2
1145.06,389.672, 8.1064e-003,2
1141.54,389.802, 8.0832e-003,2
1138.01,389.932, 8.0600e-003,2
1134.45,390.062, 8.0361e-003,2
1130.89,390.192, 8.0127e-003,2
1127.3,390.322, 7.9895e-003,2
1123.69,390.452, 7.9659e-003,2
1120.07,390.582, 7.9423e-003,2
1116.43,390.712, 7.9186e-003,2
1112.77,390.842, 7.8952e-003,2
1109.09,390.972, 7.8712e-003,2
1105.42,391.102, 7.8475e-003,2
1101.73,391.232, 7.8235e-003,2
1098.03,391.362, 7.7994e-003,2
1094.32,391.492, 7.7755e-003,2
1090.61,391.622, 7.7510e-003,2
1086.89,391.752, 7.7273e-003,2
1083.17,391.882, 7.7028e-003,2
1079.45,392.012, 7.6786e-003,2
1075.74,392.142, 7.6541e-003,2
1072.01,392.272, 7.6292e-003,2
1068.3,392.402, 7.6044e-003,2
1064.57,392.532, 7.5790e-003,2
1060.84,392.662, 7.5540e-003,2
1057.11,392.792, 7.5283e-003,2
1053.39,392.922, 7.5029e-003,2
1049.68,393.052, 7.4773e-003,2
1045.98,393.182, 7.4520e-003,2
1042.27,393.312, 7.4264e-003,2
1038.58,393.442, 7.4009e-003,2
1034.89,393.572, 7.3756e-003,2
1031.2,393.702, 7.3498e-003,2
1027.52,393.832, 7.3241e-003,2
1023.83,393.962, 7.2985e-003,2
1020.15,394.092, 7.2727e-003,2
1016.48,394.222, 7.2471e-003,2
1012.8,394.352, 7.2211e-003,2
1009.14,394.482, 7.1952e-003,2
1005.46,394.612, 7.1690e-003,2
1001.79,394.742, 7.1427e-003,2
 998.14,394.872, 7.1167e-003,2
 994.483,395.002, 7.0905e-003,2
 990.828,395.132, 7.0640e-003,2
 987.185,395.262, 7.0376e-003,2
 983.535,395.392, 7.0109e-003,2
 979.885,395.522, 6.9843e-003,2
 976.262,395.652, 6.9575e-003,2
 972.629,395.782, 6.9308e-003,2
 969.007,395.912, 6.9049e-003,2
 967.061,395.982, 6.8901e-003,2