File: data/14.1mm-083019/moon000s1r2-15mm-091519.csv
#EXPORTTYPE:           ,DATA ALL
#FILE:                 ,moonstoneS1r2.ngb-sle
#FORMAT:               ,NETZSCH5
#FTYPE:                ,ANSI
#IDENTITY:             ,moonstone 1 rerun
#DECIMAL:              ,POINT
#SEPARATOR:            ,COMMA
#MTYPE:                ,DIL
#INSTRUMENT:           ,NETZSCH DIL 402C
#PROJECT:              ,feldspar
#DATE/TIME:            ,9/15/2019 3:17:57 PM (UTC-5)
#CORR. FILE:           ,
#TEMPCAL:              ,TCALZERO.TMX
#LABORATORY:           ,Mineral Physics
#OPERATOR:             ,PAG
#REMARK:               ,bare, norm start, for bytown and rocks fast run 5 Kmin, moonstone 1, 010 or 001
#SAMPLE:               ,moonstone 1 heated
#SAMPLE LENGTH /mm:    ,14.978
#MATERIAL:             ,sapphire stnd
#MEASMODE:             ,Standard Expansion
#PURGE GAS 1:          ,ARGON
#FLOW RATE 1 /(ml/min):,75
#M.RANGE /µm:          ,500
#CORR. CODE:           ,010
#RANGE:                ,20.0°C/5.0(K/min)/425.0°C
#SEGMENT:              ,S1/1
#SEG. 1:               ,20.0°C/5.0(K/min)/425.0°C

##Temp./°C,Time/min,dL/Lo
 21.75600, 0.00000, 1.6801e-005
 21.75200, 0.06500, 1.6648e-005
 21.74300, 0.13000, 1.6425e-005
 21.75200, 0.19500, 1.6464e-005
 21.74200, 0.26000, 1.6067e-005
 21.75300, 0.32500, 1.6171e-005
 21.74500, 0.39000, 1.6014e-005
 21.73900, 0.45500, 1.5862e-005
 21.73300, 0.52000, 1.5586e-005
 21.73300, 0.58500, 1.5335e-005
 21.72300, 0.65000, 1.5013e-005
 21.72100, 0.71500, 1.5183e-005
 21.71000, 0.78000, 1.4896e-005
 21.71100, 0.84500, 1.4586e-005
 21.70200, 0.91000, 1.4263e-005
 21.70000, 0.97500, 1.4015e-005
 21.68900, 1.04000, 1.3853e-005
 21.68400, 1.10500, 1.3725e-005
 21.68300, 1.17000, 1.3551e-005
 21.67600, 1.23500, 1.3142e-005
 21.66200, 1.30000, 1.2750e-005
 21.65800, 1.36500, 1.2696e-005
 21.64600, 1.43000, 1.2410e-005
 21.64400, 1.49500, 1.2221e-005
 21.63900, 1.56000, 1.2177e-005
 21.63000, 1.62500, 1.1820e-005
 21.62400, 1.69000, 1.1836e-005
 21.61400, 1.75500, 1.1547e-005
 21.61400, 1.82000, 1.1447e-005
 21.60600, 1.88500, 1.1098e-005
 21.60100, 1.95000, 1.0920e-005
 21.60400, 2.01500, 1.0616e-005
 21.60400, 2.08000, 1.0374e-005
 21.60600, 2.14500, 1.0188e-005
 21.61000, 2.21000, 9.9082e-006
 21.61100, 2.27500, 9.5982e-006
 21.61700, 2.34000, 9.2154e-006
 21.63900, 2.40500, 8.9052e-006
 21.65900, 2.47000, 8.5808e-006
 21.68300, 2.53500, 7.9511e-006
 21.70500, 2.60000, 7.5240e-006
 21.75400, 2.66500, 7.0479e-006
 21.79100, 2.73000, 6.3108e-006
 21.84500, 2.79500, 5.8871e-006
 21.90600, 2.86000, 5.0794e-006
 21.97800, 2.92500, 4.4338e-006
 22.05100, 2.99000, 3.5200e-006
 22.13100, 3.05500, 2.4810e-006
 22.22900, 3.12000, 1.5706e-006
 22.32300, 3.18500, 4.4805e-007
 22.43800, 3.25000,-7.3299e-007
 22.56000, 3.31500,-1.7888e-006
 22.70200, 3.38000,-3.0855e-006
 22.85300, 3.44500,-4.4180e-006
 23.01400, 3.51000,-6.1462e-006
 23.18200, 3.57500,-7.3819e-006
 23.37000, 3.64000,-9.1421e-006
 23.57200, 3.70500,-1.0477e-005
 23.78400, 3.77000,-1.2040e-005
 24.00400, 3.83500,-1.3871e-005
 24.23800, 3.90000,-1.6420e-005
 24.48900, 3.96500,-1.8905e-005
 24.75500, 4.03000,-2.1658e-005
 25.02100, 4.09500,-2.3860e-005
 25.30500, 4.16000,-2.6726e-005
 25.60300, 4.22500,-2.9357e-005
 25.91000, 4.29000,-3.2124e-005
 26.23800, 4.35500,-3.3873e-005
 26.56800, 4.42000,-3.7567e-005
 26.91600, 4.48500,-4.0248e-005
 27.26300, 4.55000,-4.2459e-005
 27.62800, 4.61500,-4.5067e-005
 28.00800, 4.68000,-4.8209e-005
 28.39200, 4.74500,-5.0887e-005
 28.78800, 4.81000,-5.3722e-005
 29.19400, 4.87500,-5.5532e-005
 29.60700, 4.94000,-5.8844e-005
 30.04000, 5.00500,-6.0592e-005
 30.47000, 5.07000,-6.3989e-005
 30.90900, 5.13500,-6.6470e-005
 31.35600, 5.20000,-6.7865e-005
 31.82000, 5.26500,-7.0365e-005
 32.27800, 5.33000,-7.2448e-005
 32.74800, 5.39500,-7.4802e-005
 33.22100, 5.46000,-7.6851e-005
 33.71400, 5.52500,-7.8313e-005
 34.20200, 5.59000,-8.1195e-005
 34.68200, 5.65500,-8.3609e-005
 35.17500, 5.72000,-8.4642e-005
 35.67300, 5.78500,-8.5998e-005
 36.17800, 5.85000,-8.7896e-005
 36.67700, 5.91500,-8.9660e-005
 37.20000, 5.98000,-9.1059e-005
 37.70700, 6.04500,-9.2623e-005
 38.22800, 6.11000,-9.3225e-005
 38.75000, 6.17500,-9.5372e-005
 39.27600, 6.24000,-9.6430e-005
 39.79700, 6.30500,-9.7214e-005
 40.31100, 6.37000,-9.8607e-005
 40.82500, 6.43500,-9.9532e-005
 41.34500, 6.50000,-9.9620e-005
 41.88000, 6.56500,-1.0124e-004
 42.40300, 6.63000,-1.0116e-004
 42.93700, 6.69500,-1.0148e-004
 43.46000, 6.76000,-1.0212e-004
 43.98900, 6.82500,-1.0340e-004
 44.51300, 6.89000,-1.0307e-004
 45.05300, 6.95500,-1.0293e-004
 45.58300, 7.02000,-1.0225e-004
 46.11400, 7.08500,-1.0301e-004
 46.65300, 7.15000,-1.0326e-004
 47.18300, 7.21500,-1.0303e-004
 47.71200, 7.28000,-1.0245e-004
 48.25300, 7.34500,-1.0235e-004
 48.78900, 7.41000,-1.0256e-004
 49.31900, 7.47500,-1.0255e-004
 49.86300, 7.54000,-1.0140e-004
 50.39400, 7.60500,-1.0167e-004
 50.91700, 7.67000,-1.0109e-004
 51.45200, 7.73500,-1.0020e-004
 51.98400, 7.80000,-9.8851e-005
 52.51400, 7.86500,-9.9394e-005
 53.05100, 7.93000,-9.9026e-005
 53.58500, 7.99500,-9.7669e-005
 54.12100, 8.06000,-9.7058e-005
 54.66800, 8.12500,-9.6667e-005
 55.20300, 8.19000,-9.5352e-005
 55.74000, 8.25500,-9.4816e-005
 56.28400, 8.32000,-9.4154e-005
 56.82600, 8.38500,-9.1911e-005
 57.38700, 8.45000,-9.1367e-005
 57.92200, 8.51500,-9.0435e-005
 58.46100, 8.58000,-8.9132e-005
 59.01400, 8.64500,-8.9037e-005
 59.55500, 8.71000,-8.7702e-005
 60.10400, 8.77500,-8.6425e-005
 60.66100, 8.84000,-8.4473e-005
 61.20200, 8.90500,-8.4113e-005
 61.76300, 8.97000,-8.2906e-005
 62.32800, 9.03500,-8.1946e-005
 62.87800, 9.10000,-7.9617e-005
 63.43600, 9.16500,-7.8532e-005
 64.00100, 9.23000,-7.7629e-005
 64.55900, 9.29500,-7.5641e-005
 65.12000, 9.36000,-7.4174e-005
 65.69000, 9.42500,-7.3885e-005
 66.24600, 9.49000,-7.1810e-005
 66.81700, 9.55500,-7.0661e-005
 67.38500, 9.62000,-6.9225e-005
 67.95500, 9.68500,-6.7089e-005
 68.52100, 9.75000,-6.5240e-005
 69.09600, 9.81500,-6.4185e-005
 69.66300, 9.88000,-6.3013e-005
 70.24700, 9.94500,-6.0457e-005
 70.82500,10.01000,-5.9837e-005
 71.41200,10.07500,-5.7166e-005
 71.97800,10.14000,-5.5673e-005
 72.55700,10.20500,-5.3668e-005
 73.14400,10.27000,-5.1313e-005
 73.73500,10.33500,-5.0221e-005
 74.31400,10.40000,-4.7705e-005
 74.90500,10.46500,-4.5978e-005
 75.49400,10.53000,-4.3446e-005
 76.07000,10.59500,-4.2453e-005
 76.66200,10.66000,-3.9573e-005
 77.24400,10.72500,-3.8384e-005
 77.82100,10.79000,-3.6263e-005
 78.41100,10.85500,-3.2987e-005
 78.99700,10.92000,-3.1141e-005
 79.58900,10.98500,-2.9577e-005
 80.17800,11.05000,-2.7525e-005
 80.76500,11.11500,-2.4660e-005
 81.34900,11.18000,-2.2985e-005
 81.92300,11.24500,-2.0364e-005
 82.51400,11.31000,-1.7611e-005
 83.10200,11.37500,-1.5129e-005
 83.67800,11.44000,-1.2876e-005
 84.26900,11.50500,-1.0613e-005
 84.86000,11.57000,-7.9153e-006
 85.43300,11.63500,-5.4734e-006
 86.02500,11.70000,-3.0763e-006
 86.61000,11.76500,-3.2898e-007
 87.19600,11.83000, 1.8671e-006
 87.77100,11.89500, 4.9684e-006
 88.36200,11.96000, 7.6609e-006
 88.94700,12.02500, 9.8430e-006
 89.52900,12.09000, 1.2429e-005
 90.11800,12.15500, 1.5426e-005
 90.69300,12.22000, 1.8138e-005
 91.27300,12.28500, 2.0945e-005
 91.86000,12.35000, 2.4104e-005
 92.43800,12.41500, 2.6489e-005
 93.02100,12.48000, 2.9603e-005
 93.59700,12.54500, 3.2267e-005
 94.16900,12.61000, 3.5260e-005
 94.75100,12.67500, 3.9095e-005
 95.32800,12.74000, 4.1483e-005
 95.90900,12.80500, 4.4277e-005
 96.48000,12.87000, 4.7783e-005
 97.05400,12.93500, 5.0551e-005
 97.62900,13.00000, 5.3520e-005
 98.20500,13.06500, 5.6404e-005
 98.77300,13.13000, 5.9907e-005
 99.34400,13.19500, 6.2764e-005
 99.91500,13.26000, 6.5905e-005
100.485,13.32500, 6.8397e-005
101.052,13.39000, 7.2503e-005
101.63,13.45500, 7.5948e-005
102.194,13.52000, 7.8856e-005
102.758,13.58500, 8.1949e-005
103.33,13.65000, 8.5326e-005
103.902,13.71500, 8.8245e-005
104.461,13.78000, 9.0918e-005
105.032,13.84500, 9.4857e-005
105.591,13.91000, 9.7765e-005
106.154,13.97500, 1.0075e-004
106.703,14.04000, 1.0388e-004
107.257,14.10500, 1.0702e-004
107.828,14.17000, 1.1055e-004
108.395,14.23500, 1.1369e-004
108.951,14.30000, 1.1696e-004
109.523,14.36500, 1.2053e-004
110.074,14.43000, 1.2387e-004
110.641,14.49500, 1.2699e-004
111.191,14.56000, 1.3031e-004
111.751,14.62500, 1.3387e-004
112.317,14.69000, 1.3678e-004
112.873,14.75500, 1.4115e-004
113.428,14.82000, 1.4317e-004
113.984,14.88500, 1.4733e-004
114.539,14.95000, 1.5043e-004
115.091,15.01500, 1.5419e-004
115.651,15.08000, 1.5748e-004
116.217,15.14500, 1.6126e-004
116.766,15.21000, 1.6437e-004
117.322,15.27500, 1.6752e-004
117.879,15.34000, 1.7107e-004
118.431,15.40500, 1.7492e-004
118.973,15.47000, 1.7772e-004
119.535,15.53500, 1.8167e-004
120.072,15.60000, 1.8482e-004
120.634,15.66500, 1.8811e-004
121.193,15.73000, 1.9203e-004
121.732,15.79500, 1.9395e-004
122.301,15.86000, 1.9828e-004
122.842,15.92500, 2.0255e-004
123.391,15.99000, 2.0615e-004
123.939,16.05500, 2.0933e-004
124.485,16.12000, 2.1289e-004
125.035,16.18500, 2.1582e-004
125.581,16.25000, 2.1956e-004
126.123,16.31500, 2.2249e-004
126.674,16.38000, 2.2682e-004
127.22,16.44500, 2.3043e-004
127.761,16.51000, 2.3340e-004
128.31,16.57500, 2.3699e-004
128.85,16.64000, 2.4017e-004
129.395,16.70500, 2.4326e-004
129.944,16.77000, 2.4756e-004
130.477,16.83500, 2.5134e-004
131.023,16.90000, 2.5475e-004
131.564,16.96500, 2.5812e-004
132.111,17.03000, 2.6184e-004
132.647,17.09500, 2.6606e-004
133.189,17.16000, 2.6868e-004
133.731,17.22500, 2.7207e-004
134.264,17.29000, 2.7547e-004
134.811,17.35500, 2.7971e-004
135.344,17.42000, 2.8285e-004
135.884,17.48500, 2.8356e-004
136.424,17.55000, 2.8565e-004
136.956,17.61500, 2.8990e-004
137.487,17.68000, 2.9426e-004
138.025,17.74500, 2.9880e-004
138.566,17.81000, 3.0328e-004
139.095,17.87500, 3.0740e-004
139.626,17.94000, 3.1178e-004
140.168,18.00500, 3.1585e-004
140.697,18.07000, 3.1981e-004
141.231,18.13500, 3.2419e-004
141.764,18.20000, 3.2713e-004
142.296,18.26500, 3.2939e-004
142.827,18.33000, 3.3317e-004
143.361,18.39500, 3.3636e-004
143.894,18.46000, 3.4015e-004
144.416,18.52500, 3.4446e-004
144.958,18.59000, 3.4743e-004
145.483,18.65500, 3.5099e-004
146.011,18.72000, 3.5456e-004
146.538,18.78500, 3.5808e-004
147.06,18.85000, 3.6156e-004
147.586,18.91500, 3.6513e-004
148.112,18.98000, 3.6879e-004
148.637,19.04500, 3.7252e-004
149.165,19.11000, 3.7615e-004
149.691,19.17500, 3.7948e-004
150.226,19.24000, 3.8322e-004
150.742,19.30500, 3.8705e-004
151.261,19.37000, 3.9068e-004
151.78,19.43500, 3.9407e-004
152.307,19.50000, 3.9783e-004
152.816,19.56500, 4.0141e-004
153.345,19.63000, 4.0492e-004
153.862,19.69500, 4.0829e-004
154.387,19.76000, 4.1163e-004
154.916,19.82500, 4.1584e-004
155.43,19.89000, 4.1909e-004
155.948,19.95500, 4.2254e-004
156.465,20.02000, 4.2617e-004
156.984,20.08500, 4.2959e-004
157.507,20.15000, 4.3310e-004
158.017,20.21500, 4.3725e-004
158.54,20.28000, 4.4089e-004
159.058,20.34500, 4.4430e-004
159.573,20.41000, 4.4774e-004
160.088,20.47500, 4.5127e-004
160.607,20.54000, 4.5553e-004
161.127,20.60500, 4.5876e-004
161.652,20.67000, 4.6183e-004
162.16,20.73500, 4.6607e-004
162.673,20.80000, 4.6921e-004
163.187,20.86500, 4.7269e-004
163.701,20.93000, 4.7670e-004
164.217,20.99500, 4.8024e-004
164.725,21.06000, 4.8354e-004
165.23,21.12500, 4.8726e-004
165.748,21.19000, 4.9064e-004
166.257,21.25500, 4.9390e-004
166.77,21.32000, 4.9741e-004
167.276,21.38500, 5.0136e-004
167.804,21.45000, 5.0488e-004
168.305,21.51500, 5.0813e-004
168.818,21.58000, 5.1172e-004
169.32,21.64500, 5.1552e-004
169.826,21.71000, 5.1888e-004
170.331,21.77500, 5.2212e-004
170.839,21.84000, 5.2587e-004
171.353,21.90500, 5.2954e-004
171.853,21.97000, 5.3306e-004
172.363,22.03500, 5.3629e-004
172.862,22.10000, 5.3943e-004
173.375,22.16500, 5.4336e-004
173.885,22.23000, 5.4690e-004
174.398,22.29500, 5.5054e-004
174.905,22.36000, 5.5392e-004
175.41,22.42500, 5.5767e-004
175.914,22.49000, 5.6159e-004
176.425,22.55500, 5.6483e-004
176.922,22.62000, 5.6834e-004
177.427,22.68500, 5.7177e-004
177.931,22.75000, 5.7547e-004
178.431,22.81500, 5.7908e-004
178.935,22.88000, 5.8225e-004
179.436,22.94500, 5.8584e-004
179.931,23.01000, 5.8911e-004
180.436,23.07500, 5.9300e-004
180.936,23.14000, 5.9648e-004
181.438,23.20500, 6.0030e-004
181.941,23.27000, 6.0350e-004
182.444,23.33500, 6.0770e-004
182.934,23.40000, 6.1042e-004
183.436,23.46500, 6.1434e-004
183.934,23.53000, 6.1740e-004
184.438,23.59500, 6.2163e-004
184.924,23.66000, 6.2469e-004
185.43,23.72500, 6.2788e-004
185.933,23.79000, 6.3188e-004
186.429,23.85500, 6.3497e-004
186.926,23.92000, 6.3885e-004
187.43,23.98500, 6.4271e-004
187.924,24.05000, 6.4610e-004
188.415,24.11500, 6.4980e-004
188.91,24.18000, 6.5338e-004
189.408,24.24500, 6.5651e-004
189.907,24.31000, 6.6075e-004
190.395,24.37500, 6.6372e-004
190.886,24.44000, 6.6712e-004
191.38,24.50500, 6.7084e-004
191.882,24.57000, 6.7432e-004
192.368,24.63500, 6.7790e-004
192.867,24.70000, 6.8165e-004
193.358,24.76500, 6.8469e-004
193.852,24.83000, 6.8844e-004
194.347,24.89500, 6.9169e-004
194.843,24.96000, 6.9573e-004
195.331,25.02500, 6.9897e-004
195.826,25.09000, 7.0244e-004
196.314,25.15500, 7.0623e-004
196.81,25.22000, 7.0936e-004
197.297,25.28500, 7.1333e-004
197.785,25.35000, 7.1680e-004
198.281,25.41500, 7.2036e-004
198.762,25.48000, 7.2355e-004
199.246,25.54500, 7.2741e-004
199.736,25.61000, 7.3072e-004
200.228,25.67500, 7.3384e-004
200.711,25.74000, 7.3772e-004
201.201,25.80500, 7.4094e-004
201.679,25.87000, 7.4431e-004
202.171,25.93500, 7.4780e-004
202.649,26.00000, 7.5102e-004
203.13,26.06500, 7.5517e-004
203.617,26.13000, 7.5825e-004
204.094,26.19500, 7.6174e-004
204.577,26.26000, 7.6543e-004
205.066,26.32500, 7.6860e-004
205.548,26.39000, 7.7222e-004
206.029,26.45500, 7.7570e-004
206.506,26.52000, 7.7906e-004
206.99,26.58500, 7.8250e-004
207.472,26.65000, 7.8634e-004
207.949,26.71500, 7.8934e-004
208.431,26.78000, 7.9260e-004
208.915,26.84500, 7.9614e-004
209.392,26.91000, 7.9932e-004
209.872,26.97500, 8.0316e-004
210.351,27.04000, 8.0651e-004
210.833,27.10500, 8.0974e-004
211.312,27.17000, 8.1326e-004
211.792,27.23500, 8.1665e-004
212.268,27.30000, 8.2029e-004
212.748,27.36500, 8.2332e-004
213.226,27.43000, 8.2666e-004
213.713,27.49500, 8.3041e-004
214.189,27.56000, 8.3352e-004
214.667,27.62500, 8.3709e-004
215.146,27.69000, 8.4062e-004
215.618,27.75500, 8.4407e-004
216.091,27.82000, 8.4787e-004
216.572,27.88500, 8.5126e-004
217.051,27.95000, 8.5446e-004
217.517,28.01500, 8.5832e-004
217.993,28.08000, 8.6118e-004
218.468,28.14500, 8.6482e-004
218.943,28.21000, 8.6795e-004
219.422,28.27500, 8.7132e-004
219.893,28.34000, 8.7464e-004
220.365,28.40500, 8.7838e-004
220.835,28.47000, 8.8158e-004
221.307,28.53500, 8.8517e-004
221.782,28.60000, 8.8856e-004
222.254,28.66500, 8.9204e-004
222.724,28.73000, 8.9556e-004
223.184,28.79500, 8.9888e-004
223.649,28.86000, 9.0205e-004
224.12,28.92500, 9.0556e-004
224.59,28.99000, 9.0911e-004
225.065,29.05500, 9.1286e-004
225.535,29.12000, 9.1554e-004
225.998,29.18500, 9.1927e-004
226.481,29.25000, 9.2318e-004
226.952,29.31500, 9.2588e-004
227.417,29.38000, 9.2972e-004
227.885,29.44500, 9.3310e-004
228.353,29.51000, 9.3671e-004
228.82,29.57500, 9.4001e-004
229.29,29.64000, 9.4336e-004
229.76,29.70500, 9.4684e-004
230.221,29.77000, 9.4995e-004
230.687,29.83500, 9.5375e-004
231.157,29.90000, 9.5692e-004
231.623,29.96500, 9.6052e-004
232.088,30.03000, 9.6387e-004
232.554,30.09500, 9.6715e-004
233.019,30.16000, 9.7079e-004
233.48,30.22500, 9.7401e-004
233.943,30.29000, 9.7726e-004
234.405,30.35500, 9.8086e-004
234.862,30.42000, 9.8394e-004
235.334,30.48500, 9.8731e-004
235.796,30.55000, 9.9076e-004
236.257,30.61500, 9.9397e-004
236.722,30.68000, 9.9741e-004
237.188,30.74500, 1.0008e-003
237.645,30.81000, 1.0044e-003
238.109,30.87500, 1.0074e-003
238.566,30.94000, 1.0111e-003
239.03,31.00500, 1.0146e-003
239.493,31.07000, 1.0175e-003
239.958,31.13500, 1.0210e-003
240.413,31.20000, 1.0242e-003
240.873,31.26500, 1.0280e-003
241.336,31.33000, 1.0315e-003
241.788,31.39500, 1.0344e-003
242.249,31.46000, 1.0381e-003
242.71,31.52500, 1.0413e-003
243.172,31.59000, 1.0445e-003
243.629,31.65500, 1.0485e-003
244.086,31.72000, 1.0517e-003
244.539,31.78500, 1.0547e-003
244.994,31.85000, 1.0580e-003
245.451,31.91500, 1.0616e-003
245.907,31.98000, 1.0650e-003
246.366,32.04500, 1.0678e-003
246.827,32.11000, 1.0715e-003
247.287,32.17500, 1.0751e-003
247.739,32.24000, 1.0784e-003
248.198,32.30500, 1.0817e-003
248.653,32.37000, 1.0852e-003
249.103,32.43500, 1.0884e-003
249.561,32.50000, 1.0919e-003
250.016,32.56500, 1.0951e-003
250.468,32.63000, 1.0986e-003
250.919,32.69500, 1.1017e-003
251.373,32.76000, 1.1052e-003
251.824,32.82500, 1.1087e-003
252.283,32.89000, 1.1119e-003
252.731,32.95500, 1.1154e-003
253.181,33.02000, 1.1188e-003
253.636,33.08500, 1.1225e-003
254.09,33.15000, 1.1258e-003
254.546,33.21500, 1.1289e-003
254.992,33.28000, 1.1319e-003
255.443,33.34500, 1.1356e-003
255.883,33.41000, 1.1391e-003
256.336,33.47500, 1.1422e-003
256.786,33.54000, 1.1456e-003
257.231,33.60500, 1.1490e-003
257.678,33.67000, 1.1522e-003
258.126,33.73500, 1.1554e-003
258.579,33.80000, 1.1588e-003
259.028,33.86500, 1.1623e-003
259.47,33.93000, 1.1653e-003
259.921,33.99500, 1.1689e-003
260.367,34.06000, 1.1721e-003
260.818,34.12500, 1.1756e-003
261.262,34.19000, 1.1784e-003
261.709,34.25500, 1.1822e-003
262.154,34.32000, 1.1854e-003
262.604,34.38500, 1.1885e-003
263.042,34.45000, 1.1915e-003
263.488,34.51500, 1.1950e-003
263.937,34.58000, 1.1984e-003
264.371,34.64500, 1.2018e-003
264.82,34.71000, 1.2048e-003
265.274,34.77500, 1.2086e-003
265.719,34.84000, 1.2117e-003
266.165,34.90500, 1.2152e-003
266.601,34.97000, 1.2179e-003
267.045,35.03500, 1.2213e-003
267.487,35.10000, 1.2246e-003
267.927,35.16500, 1.2280e-003
268.372,35.23000, 1.2316e-003
268.811,35.29500, 1.2348e-003
269.256,35.36000, 1.2379e-003
269.698,35.42500, 1.2413e-003
270.135,35.49000, 1.2442e-003
270.572,35.55500, 1.2479e-003
271.003,35.62000, 1.2509e-003
271.449,35.68500, 1.2544e-003
271.887,35.75000, 1.2575e-003
272.321,35.81500, 1.2607e-003
272.765,35.88000, 1.2641e-003
273.206,35.94500, 1.2673e-003
273.645,36.01000, 1.2707e-003
274.09,36.07500, 1.2741e-003
274.527,36.14000, 1.2774e-003
274.967,36.20500, 1.2809e-003
275.415,36.27000, 1.2840e-003
275.849,36.33500, 1.2872e-003
276.287,36.40000, 1.2903e-003
276.721,36.46500, 1.2934e-003
277.16,36.53000, 1.2972e-003
277.6,36.59500, 1.3001e-003
278.031,36.66000, 1.3033e-003
278.474,36.72500, 1.3067e-003
278.909,36.79000, 1.3103e-003
279.342,36.85500, 1.3129e-003
279.771,36.92000, 1.3165e-003
280.21,36.98500, 1.3196e-003
280.644,37.05000, 1.3226e-003
281.078,37.11500, 1.3261e-003
281.515,37.18000, 1.3292e-003
281.94,37.24500, 1.3324e-003
282.37,37.31000, 1.3353e-003
282.808,37.37500, 1.3391e-003
283.238,37.44000, 1.3419e-003
283.665,37.50500, 1.3452e-003
284.095,37.57000, 1.3487e-003
284.528,37.63500, 1.3517e-003
284.958,37.70000, 1.3546e-003
285.388,37.76500, 1.3580e-003
285.821,37.83000, 1.3612e-003
286.25,37.89500, 1.3642e-003
286.68,37.96000, 1.3676e-003
287.115,38.02500, 1.3708e-003
287.54,38.09000, 1.3739e-003
287.969,38.15500, 1.3772e-003
288.402,38.22000, 1.3804e-003
288.827,38.28500, 1.3837e-003
289.255,38.35000, 1.3868e-003
289.682,38.41500, 1.3899e-003
290.113,38.48000, 1.3930e-003
290.54,38.54500, 1.3965e-003
290.971,38.61000, 1.3996e-003
291.395,38.67500, 1.4029e-003
291.821,38.74000, 1.4061e-003
292.254,38.80500, 1.4096e-003
292.686,38.87000, 1.4125e-003
293.111,38.93500, 1.4158e-003
293.534,39.00000, 1.4188e-003
293.963,39.06500, 1.4224e-003
294.387,39.13000, 1.4253e-003
294.817,39.19500, 1.4286e-003
295.244,39.26000, 1.4317e-003
295.676,39.32500, 1.4351e-003
296.099,39.39000, 1.4380e-003
296.529,39.45500, 1.4412e-003
296.951,39.52000, 1.4442e-003
297.376,39.58500, 1.4477e-003
297.793,39.65000, 1.4509e-003
298.219,39.71500, 1.4540e-003
298.642,39.78000, 1.4570e-003
299.062,39.84500, 1.4602e-003
299.481,39.91000, 1.4633e-003
299.91,39.97500, 1.4665e-003
300.328,40.04000, 1.4698e-003
300.749,40.10500, 1.4730e-003
301.167,40.17000, 1.4760e-003
301.58,40.23500, 1.4790e-003
302,40.30000, 1.4822e-003
302.423,40.36500, 1.4852e-003
302.845,40.43000, 1.4885e-003
303.265,40.49500, 1.4918e-003
303.683,40.56000, 1.4947e-003
304.098,40.62500, 1.4980e-003
304.522,40.69000, 1.5008e-003
304.941,40.75500, 1.5043e-003
305.363,40.82000, 1.5072e-003
305.783,40.88500, 1.5108e-003
306.198,40.95000, 1.5136e-003
306.626,41.01500, 1.5169e-003
307.041,41.08000, 1.5199e-003
307.464,41.14500, 1.5226e-003
307.883,41.21000, 1.5261e-003
308.301,41.27500, 1.5289e-003
308.72,41.34000, 1.5325e-003
309.139,41.40500, 1.5354e-003
309.553,41.47000, 1.5387e-003
309.975,41.53500, 1.5420e-003
310.391,41.60000, 1.5449e-003
310.804,41.66500, 1.5480e-003
311.223,41.73000, 1.5511e-003
311.647,41.79500, 1.5541e-003
312.06,41.86000, 1.5571e-003
312.476,41.92500, 1.5604e-003
312.894,41.99000, 1.5635e-003
313.307,42.05500, 1.5667e-003
313.721,42.12000, 1.5697e-003
314.136,42.18500, 1.5729e-003
314.556,42.25000, 1.5760e-003
314.973,42.31500, 1.5790e-003
315.386,42.38000, 1.5825e-003
315.797,42.44500, 1.5853e-003
316.214,42.51000, 1.5886e-003
316.633,42.57500, 1.5916e-003
317.043,42.64000, 1.5947e-003
317.455,42.70500, 1.5982e-003
317.87,42.77000, 1.6009e-003
318.288,42.83500, 1.6044e-003
318.696,42.90000, 1.6072e-003
319.107,42.96500, 1.6104e-003
319.522,43.03000, 1.6133e-003
319.932,43.09500, 1.6165e-003
320.34,43.16000, 1.6195e-003
320.749,43.22500, 1.6227e-003
321.158,43.29000, 1.6258e-003
321.571,43.35500, 1.6285e-003
321.979,43.42000, 1.6319e-003
322.385,43.48500, 1.6353e-003
322.792,43.55000, 1.6381e-003
323.197,43.61500, 1.6410e-003
323.606,43.68000, 1.6446e-003
324.02,43.74500, 1.6473e-003
324.431,43.81000, 1.6502e-003
324.842,43.87500, 1.6534e-003
325.251,43.94000, 1.6564e-003
325.658,44.00500, 1.6599e-003
326.066,44.07000, 1.6627e-003
326.474,44.13500, 1.6656e-003
326.881,44.20000, 1.6687e-003
327.285,44.26500, 1.6719e-003
327.693,44.33000, 1.6748e-003
328.1,44.39500, 1.6781e-003
328.502,44.46000, 1.6811e-003
328.908,44.52500, 1.6844e-003
329.31,44.59000, 1.6871e-003
329.719,44.65500, 1.6901e-003
330.123,44.72000, 1.6935e-003
330.521,44.78500, 1.6964e-003
330.925,44.85000, 1.6993e-003
331.331,44.91500, 1.7025e-003
331.734,44.98000, 1.7055e-003
332.142,45.04500, 1.7085e-003
332.545,45.11000, 1.7117e-003
332.943,45.17500, 1.7145e-003
333.347,45.24000, 1.7172e-003
333.752,45.30500, 1.7201e-003
334.154,45.37000, 1.7234e-003
334.556,45.43500, 1.7263e-003
334.954,45.50000, 1.7297e-003
335.358,45.56500, 1.7326e-003
335.766,45.63000, 1.7357e-003
336.165,45.69500, 1.7387e-003
336.572,45.76000, 1.7416e-003
336.974,45.82500, 1.7448e-003
337.378,45.89000, 1.7479e-003
337.772,45.95500, 1.7505e-003
338.178,46.02000, 1.7538e-003
338.583,46.08500, 1.7569e-003
338.987,46.15000, 1.7602e-003
339.376,46.21500, 1.7628e-003
339.779,46.28000, 1.7658e-003
340.18,46.34500, 1.7689e-003
340.58,46.41000, 1.7718e-003
340.99,46.47500, 1.7750e-003
341.384,46.54000, 1.7777e-003
341.78,46.60500, 1.7809e-003
342.184,46.67000, 1.7839e-003
342.585,46.73500, 1.7870e-003
342.982,46.80000, 1.7900e-003
343.378,46.86500, 1.7927e-003
343.773,46.93000, 1.7960e-003
344.172,46.99500, 1.7989e-003
344.565,47.06000, 1.8017e-003
344.968,47.12500, 1.8047e-003
345.369,47.19000, 1.8077e-003
345.761,47.25500, 1.8105e-003
346.161,47.32000, 1.8139e-003
346.557,47.38500, 1.8168e-003
346.949,47.45000, 1.8198e-003
347.357,47.51500, 1.8227e-003
347.747,47.58000, 1.8255e-003
348.141,47.64500, 1.8284e-003
348.537,47.71000, 1.8316e-003
348.934,47.77500, 1.8349e-003
349.328,47.84000, 1.8376e-003
349.725,47.90500, 1.8408e-003
350.122,47.97000, 1.8434e-003
350.518,48.03500, 1.8466e-003
350.911,48.10000, 1.8495e-003
351.307,48.16500, 1.8527e-003
351.702,48.23000, 1.8553e-003
352.1,48.29500, 1.8587e-003
352.49,48.36000, 1.8618e-003
352.886,48.42500, 1.8647e-003
353.284,48.49000, 1.8679e-003
353.677,48.55500, 1.8705e-003
354.06,48.62000, 1.8731e-003
354.354,48.68500, 1.8756e-003
354.745,48.75000, 1.8786e-003
355.135,48.81500, 1.8814e-003
355.529,48.88000, 1.8847e-003
355.923,48.94500, 1.8872e-003
356.317,49.01000, 1.8904e-003
356.706,49.07500, 1.8935e-003
357.102,49.14000, 1.8961e-003
357.492,49.20500, 1.8990e-003
357.879,49.27000, 1.9019e-003
358.264,49.33500, 1.9050e-003
358.655,49.40000, 1.9082e-003
359.05,49.46500, 1.9109e-003
359.442,49.53000, 1.9140e-003
359.831,49.59500, 1.9170e-003
360.22,49.66000, 1.9199e-003
360.611,49.72500, 1.9226e-003
361.003,49.79000, 1.9258e-003
361.387,49.85500, 1.9288e-003
361.774,49.92000, 1.9314e-003
362.164,49.98500, 1.9343e-003
362.556,50.05000, 1.9373e-003
362.942,50.11500, 1.9402e-003
363.325,50.18000, 1.9433e-003
363.706,50.24500, 1.9461e-003
364.095,50.31000, 1.9490e-003
364.483,50.37500, 1.9518e-003
364.868,50.44000, 1.9549e-003
365.257,50.50500, 1.9577e-003
365.653,50.57000, 1.9605e-003
366.039,50.63500, 1.9634e-003
366.432,50.70000, 1.9665e-003
366.814,50.76500, 1.9698e-003
367.204,50.83000, 1.9723e-003
367.59,50.89500, 1.9754e-003
367.975,50.96000, 1.9783e-003
368.36,51.02500, 1.9813e-003
368.741,51.09000, 1.9840e-003
369.126,51.15500, 1.9870e-003
369.508,51.22000, 1.9899e-003
369.896,51.28500, 1.9928e-003
370.281,51.35000, 1.9958e-003
370.665,51.41500, 1.9984e-003
371.052,51.48000, 2.0014e-003
371.434,51.54500, 2.0043e-003
371.815,51.61000, 2.0069e-003
372.204,51.67500, 2.0100e-003
372.584,51.74000, 2.0130e-003
372.972,51.80500, 2.0162e-003
373.356,51.87000, 2.0190e-003
373.739,51.93500, 2.0220e-003
374.122,52.00000, 2.0247e-003
374.507,52.06500, 2.0272e-003
374.891,52.13000, 2.0303e-003
375.272,52.19500, 2.0329e-003
375.648,52.26000, 2.0359e-003
376.039,52.32500, 2.0390e-003
376.419,52.39000, 2.0420e-003
376.806,52.45500, 2.0447e-003
377.185,52.52000, 2.0475e-003
377.561,52.58500, 2.0504e-003
377.937,52.65000, 2.0533e-003
378.322,52.71500, 2.0560e-003
378.713,52.78000, 2.0592e-003
379.084,52.84500, 2.0616e-003
379.461,52.91000, 2.0643e-003
379.842,52.97500, 2.0674e-003
380.227,53.04000, 2.0705e-003
380.607,53.10500, 2.0732e-003
380.98,53.17000, 2.0760e-003
381.37,53.23500, 2.0790e-003
381.752,53.30000, 2.0818e-003
382.128,53.36500, 2.0845e-003
382.502,53.43000, 2.0877e-003
382.891,53.49500, 2.0906e-003
383.264,53.56000, 2.0935e-003
383.638,53.62500, 2.0961e-003
384.021,53.69000, 2.0992e-003
384.396,53.75500, 2.1019e-003
384.775,53.82000, 2.1048e-003
385.157,53.88500, 2.1077e-003
385.532,53.95000, 2.1104e-003
385.909,54.01500, 2.1133e-003
386.286,54.08000, 2.1163e-003
386.67,54.14500, 2.1193e-003
387.047,54.21000, 2.1221e-003
387.417,54.27500, 2.1247e-003
387.794,54.34000, 2.1279e-003
388.167,54.40500, 2.1305e-003
388.55,54.47000, 2.1333e-003
388.928,54.53500, 2.1360e-003
389.311,54.60000, 2.1389e-003
389.68,54.66500, 2.1420e-003
390.058,54.73000, 2.1450e-003
390.432,54.79500, 2.1477e-003
390.811,54.86000, 2.1506e-003
391.19,54.92500, 2.1534e-003
391.564,54.99000, 2.1563e-003
391.936,55.05500, 2.1592e-003
392.31,55.12000, 2.1618e-003
392.681,55.18500, 2.1649e-003
393.057,55.25000, 2.1677e-003
393.432,55.31500, 2.1704e-003
393.807,55.38000, 2.1731e-003
394.178,55.44500, 2.1759e-003
394.554,55.51000, 2.1787e-003
394.926,55.57500, 2.1816e-003
395.304,55.64000, 2.1846e-003
395.676,55.70500, 2.1872e-003
396.045,55.77000, 2.1900e-003
396.418,55.83500, 2.1928e-003
396.795,55.90000, 2.1959e-003
397.166,55.96500, 2.1983e-003
397.541,56.03000, 2.2015e-003
397.915,56.09500, 2.2041e-003
398.287,56.16000, 2.2069e-003
398.66,56.22500, 2.2097e-003
399.028,56.29000, 2.2122e-003
399.398,56.35500, 2.2148e-003
399.778,56.42000, 2.2179e-003
400.146,56.48500, 2.2203e-003
400.516,56.55000, 2.2234e-003
400.884,56.61500, 2.2261e-003
401.261,56.68000, 2.2289e-003
401.633,56.74500, 2.2320e-003
402,56.81000, 2.2347e-003
402.368,56.87500, 2.2375e-003
402.745,56.94000, 2.2402e-003
403.117,57.00500, 2.2433e-003
403.483,57.07000, 2.2459e-003
403.854,57.13500, 2.2483e-003
404.226,57.20000, 2.2514e-003
404.595,57.26500, 2.2538e-003
404.963,57.33000, 2.2569e-003
405.327,57.39500, 2.2596e-003
405.693,57.46000, 2.2622e-003
406.064,57.52500, 2.2652e-003
406.434,57.59000, 2.2679e-003
406.802,57.65500, 2.2707e-003
407.167,57.72000, 2.2734e-003
407.537,57.78500, 2.2761e-003
407.906,57.85000, 2.2791e-003
408.277,57.91500, 2.2821e-003
408.644,57.98000, 2.2849e-003
409.011,58.04500, 2.2873e-003
409.378,58.11000, 2.2900e-003
409.745,58.17500, 2.2929e-003
410.111,58.24000, 2.2953e-003
410.475,58.30500, 2.2982e-003
410.84,58.37000, 2.3007e-003
411.208,58.43500, 2.3034e-003
411.576,58.50000, 2.3063e-003
411.941,58.56500, 2.3091e-003
412.301,58.63000, 2.3119e-003
412.665,58.69500, 2.3144e-003
413.032,58.76000, 2.3173e-003
413.392,58.82500, 2.3199e-003
413.76,58.89000, 2.3228e-003
414.122,58.95500, 2.3254e-003
414.487,59.02000, 2.3282e-003
414.85,59.08500, 2.3309e-003
415.216,59.15000, 2.3338e-003
415.581,59.21500, 2.3363e-003
415.942,59.28000, 2.3389e-003
416.308,59.34500, 2.3414e-003
416.667,59.41000, 2.3442e-003
417.035,59.47500, 2.3469e-003
417.4,59.54000, 2.3495e-003
417.766,59.60500, 2.3524e-003
418.125,59.67000, 2.3550e-003
418.491,59.73500, 2.3578e-003
418.856,59.80000, 2.3606e-003
419.222,59.86500, 2.3634e-003
419.583,59.93000, 2.3658e-003
419.946,59.99500, 2.3688e-003
420.305,60.06000, 2.3711e-003
420.669,60.12500, 2.3740e-003
421.031,60.19000, 2.3765e-003
421.396,60.25500, 2.3792e-003
421.754,60.32000, 2.3819e-003
422.121,60.38500, 2.3845e-003
422.478,60.45000, 2.3870e-003
422.841,60.51500, 2.3899e-003
423.203,60.58000, 2.3926e-003
423.57,60.64500, 2.3957e-003
423.925,60.71000, 2.3982e-003
424.296,60.77500, 2.4010e-003
424.651,60.84000, 2.4036e-003
425.01,60.90500, 2.4064e-003
425.373,60.97000, 2.4090e-003
425.731,61.03500, 2.4116e-003
426.092,61.10000, 2.4144e-003
426.453,61.16500, 2.4169e-003
426.81,61.23000, 2.4197e-003
427.169,61.29500, 2.4222e-003
427.527,61.36000, 2.4250e-003
427.888,61.42500, 2.4279e-003
428.248,61.49000, 2.4304e-003
428.605,61.55500, 2.4331e-003
428.966,61.62000, 2.4356e-003
429.329,61.68500, 2.4383e-003
429.689,61.75000, 2.4409e-003
430.044,61.81500, 2.4435e-003
430.397,61.88000, 2.4460e-003
430.755,61.94500, 2.4487e-003
431.112,62.01000, 2.4514e-003
431.469,62.07500, 2.4541e-003
431.828,62.14000, 2.4568e-003
432.187,62.20500, 2.4596e-003
432.545,62.27000, 2.4621e-003
432.898,62.33500, 2.4648e-003
433.258,62.40000, 2.4677e-003
433.617,62.46500, 2.4703e-003
433.978,62.53000, 2.4728e-003
434.331,62.59500, 2.4756e-003
434.69,62.66000, 2.4780e-003
435.043,62.72500, 2.4809e-003
435.399,62.79000, 2.4836e-003
435.756,62.85500, 2.4858e-003
436.116,62.92000, 2.4887e-003
436.477,62.98500, 2.4914e-003
436.838,63.05000, 2.4942e-003
437.193,63.11500, 2.4970e-003
437.539,63.18000, 2.4995e-003
437.897,63.24500, 2.5021e-003
438.253,63.31000, 2.5046e-003
438.603,63.37500, 2.5076e-003
438.959,63.44000, 2.5103e-003
439.318,63.50500, 2.5126e-003
439.676,63.57000, 2.5156e-003
440.029,63.63500, 2.5183e-003
440.384,63.70000, 2.5208e-003
440.733,63.76500, 2.5234e-003
441.092,63.83000, 2.5263e-003
441.447,63.89500, 2.5292e-003
441.802,63.96000, 2.5316e-003
442.153,64.02500, 2.5345e-003
442.507,64.09000, 2.5370e-003
442.86,64.15500, 2.5395e-003
443.218,64.22000, 2.5423e-003
443.572,64.28500, 2.5445e-003
443.92,64.35000, 2.5471e-003
444.272,64.41500, 2.5499e-003
444.622,64.48000, 2.5525e-003
444.977,64.54500, 2.5552e-003
445.324,64.61000, 2.5580e-003
445.677,64.67500, 2.5607e-003
446.032,64.74000, 2.5632e-003
446.386,64.80500, 2.5660e-003
446.737,64.87000, 2.5685e-003
447.084,64.93500, 2.5711e-003
447.434,65.00000, 2.5737e-003
447.789,65.06500, 2.5765e-003
448.139,65.13000, 2.5792e-003
448.492,65.19500, 2.5819e-003
448.842,65.26000, 2.5844e-003
449.195,65.32500, 2.5871e-003
449.544,65.39000, 2.5896e-003
449.89,65.45500, 2.5923e-003
450.242,65.52000, 2.5948e-003
450.588,65.58500, 2.5974e-003
450.945,65.65000, 2.6002e-003
451.294,65.71500, 2.6026e-003
451.642,65.78000, 2.6048e-003
451.994,65.84500, 2.6074e-003
452.344,65.91000, 2.6101e-003
452.692,65.97500, 2.6128e-003
453.041,66.04000, 2.6154e-003
453.391,66.10500, 2.6184e-003
453.741,66.17000, 2.6207e-003
454.092,66.23500, 2.6232e-003
454.438,66.30000, 2.6259e-003
454.79,66.36500, 2.6286e-003
455.14,66.43000, 2.6313e-003
455.487,66.49500, 2.6336e-003
455.833,66.56000, 2.6362e-003
456.178,66.62500, 2.6389e-003
456.531,66.69000, 2.6413e-003
456.878,66.75500, 2.6443e-003
457.228,66.82000, 2.6473e-003
457.574,66.88500, 2.6491e-003
457.926,66.95000, 2.6521e-003
458.271,67.01500, 2.6548e-003
458.614,67.08000, 2.6573e-003
458.965,67.14500, 2.6599e-003
459.31,67.21000, 2.6626e-003
459.657,67.27500, 2.6650e-003
459.891,67.31833, 2.6664e-003