File: data/14.1mm-083019/moon000s2r1-13.6mm-091319.csv
#EXPORTTYPE:           ,DATA ALL
#FILE:                 ,moonstoneS2r1.ngb-sle
#FORMAT:               ,NETZSCH5
#FTYPE:                ,ANSI
#IDENTITY:             ,moonstone 2
#DECIMAL:              ,POINT
#SEPARATOR:            ,COMMA
#MTYPE:                ,DIL
#INSTRUMENT:           ,NETZSCH DIL 402C
#PROJECT:              ,feldspar
#DATE/TIME:            ,9/13/2019 9:47:34 AM (UTC-5)
#CORR. FILE:           ,
#TEMPCAL:              ,TCALZERO.TMX
#LABORATORY:           ,Mineral Physics
#OPERATOR:             ,PAG
#REMARK:               ,bare, norm start, for bytown and rocks moonstone Or-Ab solid soln box 1 prob 100* rectangle with notch,pink
#SAMPLE:               ,fmu-box2
#SAMPLE LENGTH /mm:    ,13.568
#MATERIAL:             ,sapphire stnd
#MEASMODE:             ,Standard Expansion
#PURGE GAS 1:          ,ARGON
#FLOW RATE 1 /(ml/min):,75
#M.RANGE /µm:          ,500
#CORR. CODE:           ,010
#RANGE:                ,20.0°C/3.0(K/min)/850.0°C
#SEGMENT:              ,S1/1
#SEG. 1:               ,20.0°C/3.0(K/min)/850.0°C

##Temp./°C,Time/min,dL/Lo
 21.03600,  0.00000, 1.1659e-005
 21.04400,  0.19500, 1.3549e-005
 21.04000,  0.39000, 1.4995e-005
 21.03800,  0.58500, 1.6270e-005
 21.04000,  0.78000, 1.6938e-005
 21.03600,  0.97500, 1.7242e-005
 21.03800,  1.17000, 1.8067e-005
 21.04200,  1.36500, 1.7938e-005
 21.04300,  1.56000, 1.8360e-005
 21.03600,  1.75500, 1.8227e-005
 21.04300,  1.95000,-8.3939e-007
 21.03900,  2.14500,-1.7524e-006
 21.04300,  2.34000,-1.7054e-006
 21.04000,  2.53500,-2.3072e-006
 21.04100,  2.73000,-2.5304e-006
 21.04300,  2.92500,-2.9399e-006
 21.07100,  3.12000,-3.6705e-006
 21.11500,  3.31500,-4.7842e-006
 21.19500,  3.51000,-6.4424e-006
 21.32000,  3.70500,-8.4885e-006
 21.50000,  3.90000,-1.1100e-005
 21.73200,  4.09500,-1.4537e-005
 22.02900,  4.29000,-1.8615e-005
 22.39400,  4.48500,-2.3230e-005
 22.83900,  4.68000,-2.8064e-005
 23.34200,  4.87500,-3.3109e-005
 23.92600,  5.07000,-3.8643e-005
 24.56500,  5.26500,-4.4445e-005
 25.27100,  5.46000,-5.0290e-005
 26.00100,  5.65500,-5.6118e-005
 26.80100,  5.85000,-6.1119e-005
 27.63100,  6.04500,-6.6004e-005
 28.50000,  6.24000,-7.0467e-005
 29.40000,  6.43500,-7.4208e-005
 30.30400,  6.63000,-7.7816e-005
 31.24100,  6.82500,-8.0492e-005
 32.17800,  7.02000,-8.2880e-005
 33.13800,  7.21500,-8.4546e-005
 34.08300,  7.41000,-8.6189e-005
 35.04800,  7.60500,-8.6293e-005
 36.01000,  7.80000,-8.6305e-005
 36.97200,  7.99500,-8.6260e-005
 37.92800,  8.19000,-8.5757e-005
 38.88700,  8.38500,-8.5047e-005
 39.84300,  8.58000,-8.3692e-005
 40.80900,  8.77500,-8.2761e-005
 41.77000,  8.97000,-8.1965e-005
 42.73700,  9.16500,-8.0018e-005
 43.70600,  9.36000,-7.8239e-005
 44.68200,  9.55500,-7.6565e-005
 45.65200,  9.75000,-7.4914e-005
 46.63000,  9.94500,-7.3167e-005
 47.62600, 10.14000,-7.0838e-005
 48.61500, 10.33500,-6.8677e-005
 49.62700, 10.53000,-6.6193e-005
 50.63600, 10.72500,-6.3546e-005
 51.65200, 10.92000,-6.0635e-005
 52.67900, 11.11500,-5.7735e-005
 53.70200, 11.31000,-5.5021e-005
 54.72200, 11.50500,-5.1875e-005
 55.77100, 11.70000,-4.8169e-005
 56.80900, 11.89500,-4.4072e-005
 57.84300, 12.09000,-4.0444e-005
 58.89700, 12.28500,-3.6652e-005
 59.93300, 12.48000,-3.2317e-005
 60.97300, 12.67500,-2.7932e-005
 62.02000, 12.87000,-2.3515e-005
 63.06000, 13.06500,-1.8243e-005
 64.10400, 13.26000,-1.3946e-005
 65.14500, 13.45500,-8.6642e-006
 66.18300, 13.65000,-3.5502e-006
 67.22700, 13.84500, 1.2403e-006
 68.26800, 14.04000, 6.8214e-006
 69.32100, 14.23500, 1.0962e-005
 70.36000, 14.43000, 1.6827e-005
 71.39400, 14.62500, 2.2703e-005
 72.43200, 14.82000, 2.8076e-005
 73.45300, 15.01500, 3.3908e-005
 74.47600, 15.21000, 4.0097e-005
 75.50600, 15.40500, 4.5703e-005
 76.53700, 15.60000, 5.1678e-005
 77.56200, 15.79500, 5.8394e-005
 78.59100, 15.99000, 6.4358e-005
 79.61800, 16.18500, 7.0963e-005
 80.65100, 16.38000, 7.6509e-005
 81.67600, 16.57500, 8.3287e-005
 82.68400, 16.77000, 8.9751e-005
 83.70700, 16.96500, 9.6473e-005
 84.70500, 17.16000, 1.0269e-004
 85.72200, 17.35500, 1.0926e-004
 86.73100, 17.55000, 1.1588e-004
 87.74400, 17.74500, 1.2237e-004
 88.74100, 17.94000, 1.2876e-004
 89.74500, 18.13500, 1.3483e-004
 90.74700, 18.33000, 1.4162e-004
 91.74000, 18.52500, 1.4798e-004
 92.73100, 18.72000, 1.5493e-004
 93.71700, 18.91500, 1.6198e-004
 94.70300, 19.11000, 1.6861e-004
 95.69100, 19.30500, 1.7544e-004
 96.68100, 19.50000, 1.8177e-004
 97.65900, 19.69500, 1.8791e-004
 98.64600, 19.89000, 1.9520e-004
 99.61000, 20.08500, 2.0227e-004
100.59, 20.28000, 2.0884e-004
101.562, 20.47500, 2.1627e-004
102.55, 20.67000, 2.2282e-004
103.505, 20.86500, 2.2973e-004
104.47, 21.06000, 2.3680e-004
105.455, 21.25500, 2.4404e-004
106.416, 21.45000, 2.5066e-004
107.381, 21.64500, 2.5727e-004
108.346, 21.84000, 2.6459e-004
109.308, 22.03500, 2.7097e-004
110.271, 22.23000, 2.7792e-004
111.239, 22.42500, 2.8477e-004
112.203, 22.62000, 2.9166e-004
113.157, 22.81500, 2.9852e-004
114.118, 23.01000, 3.0535e-004
115.078, 23.20500, 3.1200e-004
116.016, 23.40000, 3.1847e-004
116.966, 23.59500, 3.2518e-004
117.911, 23.79000, 3.3194e-004
118.861, 23.98500, 3.3937e-004
119.81, 24.18000, 3.4603e-004
120.752, 24.37500, 3.5297e-004
121.701, 24.57000, 3.5970e-004
122.648, 24.76500, 3.6683e-004
123.594, 24.96000, 3.7358e-004
124.528, 25.15500, 3.7995e-004
125.469, 25.35000, 3.8701e-004
126.412, 25.54500, 3.9416e-004
127.356, 25.74000, 4.0077e-004
128.286, 25.93500, 4.0717e-004
129.215, 26.13000, 4.1370e-004
130.139, 26.32500, 4.2104e-004
131.09, 26.52000, 4.2811e-004
132.029, 26.71500, 4.3505e-004
132.95, 26.91000, 4.4190e-004
133.885, 27.10500, 4.4873e-004
134.809, 27.30000, 4.5513e-004
135.741, 27.49500, 4.6238e-004
136.665, 27.69000, 4.6893e-004
137.593, 27.88500, 4.7614e-004
138.508, 28.08000, 4.8312e-004
139.435, 28.27500, 4.8947e-004
140.365, 28.47000, 4.9677e-004
141.285, 28.66500, 5.0343e-004
142.212, 28.86000, 5.1047e-004
143.129, 29.05500, 5.1742e-004
144.048, 29.25000, 5.2389e-004
144.962, 29.44500, 5.3073e-004
145.878, 29.64000, 5.3772e-004
146.789, 29.83500, 5.4459e-004
147.699, 30.03000, 5.5131e-004
148.608, 30.22500, 5.5807e-004
149.521, 30.42000, 5.6526e-004
150.438, 30.61500, 5.7191e-004
151.353, 30.81000, 5.7843e-004
152.263, 31.00500, 5.8562e-004
153.166, 31.20000, 5.9182e-004
154.076, 31.39500, 5.9890e-004
154.984, 31.59000, 6.0523e-004
155.892, 31.78500, 6.1184e-004
156.787, 31.98000, 6.1849e-004
157.692, 32.17500, 6.2580e-004
158.597, 32.37000, 6.3260e-004
159.498, 32.56500, 6.3952e-004
160.396, 32.76000, 6.4584e-004
161.297, 32.95500, 6.5284e-004
162.191, 33.15000, 6.5912e-004
163.088, 33.34500, 6.6608e-004
163.986, 33.54000, 6.7239e-004
164.886, 33.73500, 6.7815e-004
165.777, 33.93000, 6.8455e-004
166.68, 34.12500, 6.9134e-004
167.571, 34.32000, 6.9855e-004
168.453, 34.51500, 7.0525e-004
169.36, 34.71000, 7.1122e-004
170.246, 34.90500, 7.1789e-004
171.131, 35.10000, 7.2399e-004
172.022, 35.29500, 7.3107e-004
172.904, 35.49000, 7.3780e-004
173.789, 35.68500, 7.4408e-004
174.668, 35.88000, 7.5079e-004
175.549, 36.07500, 7.5783e-004
176.437, 36.27000, 7.6483e-004
177.32, 36.46500, 7.7104e-004
178.198, 36.66000, 7.7818e-004
179.07, 36.85500, 7.8409e-004
179.955, 37.05000, 7.9088e-004
180.824, 37.24500, 7.9744e-004
181.702, 37.44000, 8.0349e-004
182.573, 37.63500, 8.1052e-004
183.442, 37.83000, 8.1743e-004
184.323, 38.02500, 8.2332e-004
185.192, 38.22000, 8.3041e-004
186.064, 38.41500, 8.3729e-004
186.935, 38.61000, 8.4445e-004
187.801, 38.80500, 8.5099e-004
188.669, 39.00000, 8.5759e-004
189.537, 39.19500, 8.6442e-004
190.415, 39.39000, 8.7047e-004
191.279, 39.58500, 8.7707e-004
192.152, 39.78000, 8.8303e-004
193.016, 39.97500, 8.8968e-004
193.88, 40.17000, 8.9634e-004
194.746, 40.36500, 9.0300e-004
195.599, 40.56000, 9.0824e-004
196.463, 40.75500, 9.1500e-004
197.332, 40.95000, 9.2137e-004
198.199, 41.14500, 9.2820e-004
199.056, 41.34000, 9.3470e-004
199.915, 41.53500, 9.4132e-004
200.778, 41.73000, 9.4764e-004
201.632, 41.92500, 9.5439e-004
202.491, 42.12000, 9.6044e-004
203.347, 42.31500, 9.6689e-004
204.191, 42.51000, 9.7053e-004
205.051, 42.70500, 9.7668e-004
205.899, 42.90000, 9.8318e-004
206.748, 43.09500, 9.8954e-004
207.593, 43.29000, 9.9563e-004
208.442, 43.48500, 1.0024e-003
209.291, 43.68000, 1.0093e-003
210.14, 43.87500, 1.0162e-003
210.982, 44.07000, 1.0226e-003
211.835, 44.26500, 1.0288e-003
212.675, 44.46000, 1.0356e-003
213.517, 44.65500, 1.0419e-003
214.355, 44.85000, 1.0489e-003
215.205, 45.04500, 1.0558e-003
216.049, 45.24000, 1.0627e-003
216.887, 45.43500, 1.0688e-003
217.732, 45.63000, 1.0747e-003
218.575, 45.82500, 1.0815e-003
219.41, 46.02000, 1.0884e-003
220.24, 46.21500, 1.0947e-003
221.081, 46.41000, 1.1008e-003
221.907, 46.60500, 1.1072e-003
222.737, 46.80000, 1.1138e-003
223.58, 46.99500, 1.1207e-003
224.404, 47.19000, 1.1267e-003
225.24, 47.38500, 1.1334e-003
226.067, 47.58000, 1.1401e-003
226.9, 47.77500, 1.1461e-003
227.724, 47.97000, 1.1529e-003
228.559, 48.16500, 1.1592e-003
229.391, 48.36000, 1.1656e-003
230.217, 48.55500, 1.1722e-003
231.041, 48.75000, 1.1789e-003
231.852, 48.94500, 1.1846e-003
232.681, 49.14000, 1.1912e-003
233.502, 49.33500, 1.1975e-003
234.337, 49.53000, 1.2041e-003
235.162, 49.72500, 1.2109e-003
235.979, 49.92000, 1.2167e-003
236.794, 50.11500, 1.2228e-003
237.615, 50.31000, 1.2295e-003
238.433, 50.50500, 1.2362e-003
239.249, 50.70000, 1.2425e-003
240.065, 50.89500, 1.2484e-003
240.881, 51.09000, 1.2553e-003
241.69, 51.28500, 1.2613e-003
242.501, 51.48000, 1.2680e-003
243.323, 51.67500, 1.2741e-003
244.134, 51.87000, 1.2808e-003
244.948, 52.06500, 1.2872e-003
245.761, 52.26000, 1.2934e-003
246.563, 52.45500, 1.2998e-003
247.368, 52.65000, 1.3057e-003
248.178, 52.84500, 1.3124e-003
248.981, 53.04000, 1.3190e-003
249.785, 53.23500, 1.3254e-003
250.588, 53.43000, 1.3317e-003
251.397, 53.62500, 1.3380e-003
252.201, 53.82000, 1.3437e-003
253.008, 54.01500, 1.3501e-003
253.807, 54.21000, 1.3562e-003
254.599, 54.40500, 1.3623e-003
255.398, 54.60000, 1.3686e-003
256.195, 54.79500, 1.3749e-003
256.997, 54.99000, 1.3806e-003
257.79, 55.18500, 1.3872e-003
258.584, 55.38000, 1.3936e-003
259.369, 55.57500, 1.3994e-003
260.171, 55.77000, 1.4059e-003
260.962, 55.96500, 1.4120e-003
261.75, 56.16000, 1.4180e-003
262.536, 56.35500, 1.4240e-003
263.335, 56.55000, 1.4304e-003
264.119, 56.74500, 1.4361e-003
264.91, 56.94000, 1.4423e-003
265.698, 57.13500, 1.4483e-003
266.477, 57.33000, 1.4532e-003
267.26, 57.52500, 1.4563e-003
268.055, 57.72000, 1.4624e-003
268.836, 57.91500, 1.4683e-003
269.624, 58.11000, 1.4744e-003
270.405, 58.30500, 1.4807e-003
271.182, 58.50000, 1.4867e-003
271.954, 58.69500, 1.4932e-003
272.738, 58.89000, 1.4989e-003
273.512, 59.08500, 1.5051e-003
274.301, 59.28000, 1.5116e-003
275.08, 59.47500, 1.5180e-003
275.848, 59.67000, 1.5239e-003
276.621, 59.86500, 1.5305e-003
277.402, 60.06000, 1.5366e-003
278.174, 60.25500, 1.5426e-003
278.938, 60.45000, 1.5486e-003
279.714, 60.64500, 1.5550e-003
280.485, 60.84000, 1.5612e-003
281.255, 61.03500, 1.5670e-003
282.032, 61.23000, 1.5732e-003
282.804, 61.42500, 1.5793e-003
283.575, 61.62000, 1.5852e-003
284.333, 61.81500, 1.5912e-003
285.101, 62.01000, 1.5971e-003
285.872, 62.20500, 1.6034e-003
286.639, 62.40000, 1.6092e-003
287.407, 62.59500, 1.6157e-003
288.175, 62.79000, 1.6218e-003
288.939, 62.98500, 1.6280e-003
289.707, 63.18000, 1.6338e-003
290.471, 63.37500, 1.6398e-003
291.229, 63.57000, 1.6460e-003
291.997, 63.76500, 1.6521e-003
292.753, 63.96000, 1.6581e-003
293.506, 64.15500, 1.6644e-003
294.267, 64.35000, 1.6701e-003
295.017, 64.54500, 1.6764e-003
295.767, 64.74000, 1.6825e-003
296.531, 64.93500, 1.6889e-003
297.287, 65.13000, 1.6946e-003
298.043, 65.32500, 1.7001e-003
298.788, 65.52000, 1.7062e-003
299.534, 65.71500, 1.7122e-003
300.285, 65.91000, 1.7179e-003
301.033, 66.10500, 1.7236e-003
301.779, 66.30000, 1.7297e-003
302.537, 66.49500, 1.7354e-003
303.277, 66.69000, 1.7414e-003
304.025, 66.88500, 1.7476e-003
304.775, 67.08000, 1.7534e-003
305.525, 67.27500, 1.7591e-003
306.266, 67.47000, 1.7650e-003
307.018, 67.66500, 1.7711e-003
307.767, 67.86000, 1.7770e-003
308.515, 68.05500, 1.7830e-003
309.26, 68.25000, 1.7887e-003
310.005, 68.44500, 1.7950e-003
310.754, 68.64000, 1.8011e-003
311.495, 68.83500, 1.8063e-003
312.237, 69.03000, 1.8126e-003
312.976, 69.22500, 1.8185e-003
313.715, 69.42000, 1.8243e-003
314.449, 69.61500, 1.8299e-003
315.186, 69.81000, 1.8357e-003
315.918, 70.00500, 1.8419e-003
316.655, 70.20000, 1.8472e-003
317.389, 70.39500, 1.8529e-003
318.126, 70.59000, 1.8581e-003
318.861, 70.78500, 1.8601e-003
319.597, 70.98000, 1.8645e-003
320.319, 71.17500, 1.8702e-003
321.051, 71.37000, 1.8759e-003
321.785, 71.56500, 1.8819e-003
322.517, 71.76000, 1.8872e-003
323.246, 71.95500, 1.8930e-003
323.973, 72.15000, 1.8993e-003
324.7, 72.34500, 1.9048e-003
325.432, 72.54000, 1.9106e-003
326.159, 72.73500, 1.9165e-003
326.884, 72.93000, 1.9227e-003
327.603, 73.12500, 1.9287e-003
328.326, 73.32000, 1.9351e-003
329.041, 73.51500, 1.9404e-003
329.772, 73.71000, 1.9467e-003
330.49, 73.90500, 1.9528e-003
331.194, 74.10000, 1.9590e-003
331.914, 74.29500, 1.9647e-003
332.629, 74.49000, 1.9708e-003
333.344, 74.68500, 1.9768e-003
334.049, 74.88000, 1.9831e-003
334.759, 75.07500, 1.9887e-003
335.467, 75.27000, 1.9941e-003
336.167, 75.46500, 1.9999e-003
336.88, 75.66000, 2.0050e-003
337.591, 75.85500, 2.0108e-003
338.288, 76.05000, 2.0162e-003
339.01, 76.24500, 2.0213e-003
339.731, 76.44000, 2.0273e-003
340.459, 76.63500, 2.0324e-003
341.176, 76.83000, 2.0375e-003
341.909, 77.02500, 2.0428e-003
342.63, 77.22000, 2.0480e-003
343.369, 77.41500, 2.0536e-003
344.106, 77.61000, 2.0586e-003
344.846, 77.80500, 2.0641e-003
345.597, 78.00000, 2.0698e-003
346.332, 78.19500, 2.0749e-003
347.078, 78.39000, 2.0806e-003
347.824, 78.58500, 2.0863e-003
348.562, 78.78000, 2.0911e-003
349.305, 78.97500, 2.0970e-003
350.053, 79.17000, 2.1025e-003
350.791, 79.36500, 2.1075e-003
351.532, 79.56000, 2.1132e-003
352.265, 79.75500, 2.1185e-003
353.002, 79.95000, 2.1241e-003
353.731, 80.14500, 2.1294e-003
354.463, 80.34000, 2.1351e-003
355.189, 80.53500, 2.1408e-003
355.901, 80.73000, 2.1462e-003
356.633, 80.92500, 2.1516e-003
357.342, 81.12000, 2.1554e-003
358.06, 81.31500, 2.1612e-003
358.781, 81.51000, 2.1682e-003
359.5, 81.70500, 2.1733e-003
360.217, 81.90000, 2.1791e-003
360.922, 82.09500, 2.1842e-003
361.628, 82.29000, 2.1900e-003
362.338, 82.48500, 2.1956e-003
363.058, 82.68000, 2.2010e-003
363.766, 82.87500, 2.2066e-003
364.473, 83.07000, 2.2117e-003
365.181, 83.26500, 2.2179e-003
365.894, 83.46000, 2.2237e-003
366.583, 83.65500, 2.2283e-003
367.292, 83.85000, 2.2346e-003
367.991, 84.04500, 2.2404e-003
368.686, 84.24000, 2.2457e-003
369.374, 84.43500, 2.2511e-003
370.07, 84.63000, 2.2564e-003
370.76, 84.82500, 2.2618e-003
371.46, 85.02000, 2.2669e-003
372.148, 85.21500, 2.2729e-003
372.836, 85.41000, 2.2781e-003
373.527, 85.60500, 2.2835e-003
374.213, 85.80000, 2.2887e-003
374.901, 85.99500, 2.2904e-003
375.591, 86.19000, 2.2788e-003
376.28, 86.38500, 2.2816e-003
376.969, 86.58000, 2.2862e-003
377.653, 86.77500, 2.2894e-003
378.334, 86.97000, 2.2890e-003
379.024, 87.16500, 2.2939e-003
379.698, 87.36000, 2.2985e-003
380.375, 87.55500, 2.3039e-003
381.056, 87.75000, 2.3085e-003
381.73, 87.94500, 2.3135e-003
382.415, 88.14000, 2.3195e-003
383.095, 88.33500, 2.3245e-003
383.771, 88.53000, 2.3304e-003
384.45, 88.72500, 2.3360e-003
385.122, 88.92000, 2.3415e-003
385.798, 89.11500, 2.3469e-003
386.458, 89.31000, 2.3522e-003
387.129, 89.50500, 2.3575e-003
387.809, 89.70000, 2.3628e-003
388.479, 89.89500, 2.3681e-003
389.155, 90.09000, 2.3736e-003
389.82, 90.28500, 2.3785e-003
390.494, 90.48000, 2.3833e-003
391.17, 90.67500, 2.3881e-003
391.83, 90.87000, 2.3933e-003
392.509, 91.06500, 2.3984e-003
393.176, 91.26000, 2.4037e-003
393.843, 91.45500, 2.4088e-003
394.508, 91.65000, 2.4136e-003
395.17, 91.84500, 2.4191e-003
395.834, 92.04000, 2.4243e-003
396.498, 92.23500, 2.4287e-003
397.167, 92.43000, 2.4344e-003
397.828, 92.62500, 2.4389e-003
398.486, 92.82000, 2.4442e-003
399.15, 93.01500, 2.4472e-003
399.821, 93.21000, 2.4522e-003
400.481, 93.40500, 2.4579e-003
401.149, 93.60000, 2.4630e-003
401.802, 93.79500, 2.4672e-003
402.467, 93.99000, 2.4702e-003
403.127, 94.18500, 2.4751e-003
403.784, 94.38000, 2.4800e-003
404.438, 94.57500, 2.4810e-003
405.095, 94.77000, 2.4861e-003
405.76, 94.96500, 2.4920e-003
406.417, 95.16000, 2.4970e-003
407.074, 95.35500, 2.5001e-003
407.736, 95.55000, 2.5052e-003
408.393, 95.74500, 2.5106e-003
409.046, 95.94000, 2.5143e-003
409.704, 96.13500, 2.5196e-003
410.362, 96.33000, 2.5247e-003
411.014, 96.52500, 2.5298e-003
411.664, 96.72000, 2.5347e-003
412.319, 96.91500, 2.5312e-003
412.966, 97.11000, 2.5360e-003
413.625, 97.30500, 2.5357e-003
414.268, 97.50000, 2.5401e-003
414.924, 97.69500, 2.5459e-003
415.581, 97.89000, 2.5511e-003
416.228, 98.08500, 2.5568e-003
416.881, 98.28000, 2.5620e-003
417.53, 98.47500, 2.5671e-003
418.183, 98.67000, 2.5725e-003
418.829, 98.86500, 2.5778e-003
419.482, 99.06000, 2.5832e-003
420.134, 99.25500, 2.5886e-003
420.789, 99.45000, 2.5941e-003
421.438, 99.64500, 2.5989e-003
422.084, 99.84000, 2.6031e-003
422.729,100.035, 2.6081e-003
423.373,100.23, 2.6135e-003
424.022,100.425, 2.6187e-003
424.668,100.62, 2.6242e-003
425.31,100.815, 2.6281e-003
425.955,101.01, 2.6334e-003
426.599,101.205, 2.6385e-003
427.25,101.4, 2.6432e-003
427.891,101.595, 2.6483e-003
428.534,101.79, 2.6513e-003
429.181,101.985, 2.6570e-003
429.82,102.18, 2.6620e-003
430.461,102.375, 2.6672e-003
431.103,102.57, 2.6725e-003
431.754,102.765, 2.6777e-003
432.393,102.96, 2.6807e-003
433.036,103.155, 2.6857e-003
433.68,103.35, 2.6909e-003
434.323,103.545, 2.6958e-003
434.958,103.74, 2.7008e-003
435.6,103.935, 2.7055e-003
436.242,104.13, 2.7107e-003
436.881,104.325, 2.7159e-003
437.517,104.52, 2.7206e-003
438.153,104.715, 2.7256e-003
438.788,104.91, 2.7311e-003
439.426,105.105, 2.7363e-003
440.064,105.3, 2.7412e-003
440.694,105.495, 2.7458e-003
441.334,105.69, 2.7507e-003
441.973,105.885, 2.7556e-003
442.606,106.08, 2.7604e-003
443.235,106.275, 2.7655e-003
443.873,106.47, 2.7708e-003
444.508,106.665, 2.7754e-003
445.142,106.86, 2.7803e-003
445.772,107.055, 2.7853e-003
446.402,107.25, 2.7900e-003
447.03,107.445, 2.7952e-003
447.672,107.64, 2.7999e-003
448.3,107.835, 2.8034e-003
448.936,108.03, 2.8079e-003
449.566,108.225, 2.8129e-003
450.191,108.42, 2.8179e-003
450.813,108.615, 2.8224e-003
451.442,108.81, 2.8267e-003
452.071,109.005, 2.8313e-003
452.703,109.2, 2.8362e-003
453.332,109.395, 2.8409e-003
453.954,109.59, 2.8423e-003
454.584,109.785, 2.8475e-003
455.207,109.98, 2.8526e-003
455.839,110.175, 2.8577e-003
456.462,110.37, 2.8622e-003
457.078,110.565, 2.8674e-003
457.706,110.76, 2.8701e-003
458.329,110.955, 2.8751e-003
458.954,111.15, 2.8800e-003
459.576,111.345, 2.8851e-003
460.195,111.54, 2.8899e-003
460.817,111.735, 2.8944e-003
461.44,111.93, 2.8980e-003
462.059,112.125, 2.9032e-003
462.687,112.32, 2.9080e-003
463.302,112.515, 2.9064e-003
463.929,112.71, 2.9113e-003
464.548,112.905, 2.9164e-003
465.169,113.1, 2.9211e-003
465.791,113.295, 2.9228e-003
466.41,113.49, 2.9279e-003
467.028,113.685, 2.9330e-003
467.635,113.88, 2.9380e-003
468.252,114.075, 2.9420e-003
468.869,114.27, 2.9470e-003
469.485,114.465, 2.9520e-003
470.107,114.66, 2.9571e-003
470.718,114.855, 2.9617e-003
471.344,115.05, 2.9666e-003
471.962,115.245, 2.9715e-003
472.581,115.44, 2.9766e-003
473.196,115.635, 2.9809e-003
473.804,115.83, 2.9853e-003
474.415,116.025, 2.9896e-003
475.027,116.22, 2.9947e-003
475.634,116.415, 2.9995e-003
476.247,116.61, 3.0038e-003
476.862,116.805, 3.0088e-003
477.474,117, 3.0133e-003
478.088,117.195, 3.0183e-003
478.699,117.39, 3.0231e-003
479.312,117.585, 3.0279e-003
479.926,117.78, 3.0324e-003
480.537,117.975, 3.0373e-003
481.152,118.17, 3.0426e-003
481.751,118.365, 3.0472e-003
482.378,118.56, 3.0527e-003
482.987,118.755, 3.0577e-003
483.582,118.95, 3.0626e-003
484.19,119.145, 3.0676e-003
484.791,119.34, 3.0726e-003
485.394,119.535, 3.0778e-003
486.004,119.73, 3.0829e-003
486.598,119.925, 3.0881e-003
487.192,120.12, 3.0932e-003
487.79,120.315, 3.0981e-003
488.377,120.51, 3.1033e-003
488.971,120.705, 3.1084e-003
489.558,120.9, 3.1130e-003
490.15,121.095, 3.1182e-003
490.738,121.29, 3.1227e-003
491.337,121.485, 3.1275e-003
491.925,121.68, 3.1322e-003
492.524,121.875, 3.1367e-003
493.129,122.07, 3.1415e-003
493.739,122.265, 3.1461e-003
494.341,122.46, 3.1505e-003
494.959,122.655, 3.1550e-003
495.578,122.85, 3.1597e-003
496.196,123.045, 3.1645e-003
496.822,123.24, 3.1688e-003
497.451,123.435, 3.1734e-003
498.075,123.63, 3.1782e-003
498.704,123.825, 3.1828e-003
499.33,124.02, 3.1879e-003
499.957,124.215, 3.1923e-003
500.592,124.41, 3.1945e-003
501.215,124.605, 3.1992e-003
501.84,124.8, 3.2045e-003
502.467,124.995, 3.2099e-003
503.081,125.19, 3.2145e-003
503.701,125.385, 3.2197e-003
504.314,125.58, 3.2246e-003
504.927,125.775, 3.2296e-003
505.545,125.97, 3.2347e-003
506.161,126.165, 3.2397e-003
506.769,126.36, 3.2443e-003
507.377,126.555, 3.2492e-003
507.984,126.75, 3.2540e-003
508.601,126.945, 3.2584e-003
509.218,127.14, 3.2637e-003
509.821,127.335, 3.2680e-003
510.43,127.53, 3.2728e-003
511.033,127.725, 3.2777e-003
511.638,127.92, 3.2823e-003
512.241,128.115, 3.2870e-003
512.847,128.31, 3.2920e-003
513.446,128.505, 3.2967e-003
514.034,128.7, 3.3011e-003
514.638,128.895, 3.3059e-003
515.236,129.09, 3.3109e-003
515.826,129.285, 3.3153e-003
516.432,129.48, 3.3200e-003
517.027,129.675, 3.3247e-003
517.622,129.87, 3.3292e-003
518.211,130.065, 3.3337e-003
518.802,130.26, 3.3387e-003
519.398,130.455, 3.3435e-003
519.992,130.65, 3.3481e-003
520.575,130.845, 3.3525e-003
521.167,131.04, 3.3571e-003
521.761,131.235, 3.3617e-003
522.351,131.43, 3.3662e-003
522.938,131.625, 3.3712e-003
523.52,131.82, 3.3756e-003
524.111,132.015, 3.3805e-003
524.702,132.21, 3.3849e-003
525.277,132.405, 3.3896e-003
525.866,132.6, 3.3942e-003
526.457,132.795, 3.3989e-003
527.043,132.99, 3.4036e-003
527.628,133.185, 3.4080e-003
528.216,133.38, 3.4129e-003
528.804,133.575, 3.4174e-003
529.381,133.77, 3.4222e-003
529.97,133.965, 3.4269e-003
530.551,134.16, 3.4316e-003
531.127,134.355, 3.4363e-003
531.709,134.55, 3.4409e-003
532.292,134.745, 3.4456e-003
532.869,134.94, 3.4499e-003
533.452,135.135, 3.4546e-003
534.037,135.33, 3.4593e-003
534.623,135.525, 3.4639e-003
535.208,135.72, 3.4687e-003
535.791,135.915, 3.4735e-003
536.378,136.11, 3.4781e-003
536.953,136.305, 3.4826e-003
537.531,136.5, 3.4875e-003
538.109,136.695, 3.4919e-003
538.685,136.89, 3.4965e-003
539.265,137.085, 3.5012e-003
539.841,137.28, 3.5058e-003
540.419,137.475, 3.5106e-003
540.991,137.67, 3.5153e-003
541.57,137.865, 3.5197e-003
542.146,138.06, 3.5243e-003
542.723,138.255, 3.5289e-003
543.292,138.45, 3.5333e-003
543.87,138.645, 3.5380e-003
544.449,138.84, 3.5429e-003
545.027,139.035, 3.5476e-003
545.612,139.23, 3.5522e-003
546.184,139.425, 3.5567e-003
546.763,139.62, 3.5612e-003
547.339,139.815, 3.5657e-003
547.911,140.01, 3.5701e-003
548.489,140.205, 3.5749e-003
549.06,140.4, 3.5793e-003
549.641,140.595, 3.5836e-003
550.217,140.79, 3.5885e-003
550.787,140.985, 3.5930e-003
551.361,141.18, 3.5979e-003
551.936,141.375, 3.6025e-003
552.502,141.57, 3.6070e-003
553.073,141.765, 3.6117e-003
553.645,141.96, 3.6146e-003
554.22,142.155, 3.6173e-003
554.788,142.35, 3.6219e-003
555.365,142.545, 3.6267e-003
555.936,142.74, 3.6316e-003
556.513,142.935, 3.6363e-003
557.084,143.13, 3.6411e-003
557.658,143.325, 3.6424e-003
558.23,143.52, 3.6474e-003
558.801,143.715, 3.6520e-003
559.373,143.91, 3.6568e-003
559.937,144.105, 3.6612e-003
560.511,144.3, 3.6659e-003
561.076,144.495, 3.6694e-003
561.649,144.69, 3.6743e-003
562.228,144.885, 3.6789e-003
562.795,145.08, 3.6834e-003
563.368,145.275, 3.6878e-003
563.935,145.47, 3.6925e-003
564.5,145.665, 3.6962e-003
565.069,145.86, 3.7007e-003
565.64,146.055, 3.7055e-003
566.206,146.25, 3.7083e-003
566.769,146.445, 3.7133e-003
567.331,146.64, 3.7182e-003
567.896,146.835, 3.7228e-003
568.456,147.03, 3.7268e-003
569.015,147.225, 3.7317e-003
569.576,147.42, 3.7365e-003
570.145,147.615, 3.7415e-003
570.694,147.81, 3.7462e-003
571.239,148.005, 3.7503e-003
571.791,148.2, 3.7552e-003
572.343,148.395, 3.7583e-003
572.892,148.59, 3.7632e-003
573.447,148.785, 3.7677e-003
574.008,148.98, 3.7708e-003
574.553,149.175, 3.7753e-003
575.106,149.37, 3.7800e-003
575.67,149.565, 3.7846e-003
576.221,149.76, 3.7878e-003
576.787,149.955, 3.7922e-003
577.35,150.15, 3.7968e-003
577.921,150.345, 3.7993e-003
578.503,150.54, 3.8035e-003
579.076,150.735, 3.8081e-003
579.66,150.93, 3.8084e-003
580.245,151.125, 3.8083e-003
580.833,151.32, 3.8128e-003
581.42,151.515, 3.8156e-003
582.012,151.71, 3.8202e-003
582.604,151.905, 3.8245e-003
583.189,152.1, 3.8285e-003
583.777,152.295, 3.8329e-003
584.364,152.49, 3.8358e-003
584.949,152.685, 3.8403e-003
585.53,152.88, 3.8451e-003
586.107,153.075, 3.8496e-003
586.686,153.27, 3.8527e-003
587.263,153.465, 3.8574e-003
587.845,153.66, 3.8612e-003
588.412,153.855, 3.8655e-003
588.992,154.05, 3.8703e-003
589.573,154.245, 3.8749e-003
590.141,154.44, 3.8787e-003
590.715,154.635, 3.8827e-003
591.287,154.83, 3.8873e-003
591.855,155.025, 3.8919e-003
592.426,155.22, 3.8965e-003
592.99,155.415, 3.9006e-003
593.56,155.61, 3.9040e-003
594.132,155.805, 3.9089e-003
594.696,156, 3.9137e-003
595.259,156.195, 3.9183e-003
595.817,156.39, 3.9228e-003
596.378,156.585, 3.9273e-003
596.939,156.78, 3.9317e-003
597.507,156.975, 3.9366e-003
598.073,157.17, 3.9409e-003
598.633,157.365, 3.9455e-003
599.191,157.56, 3.9498e-003
599.75,157.755, 3.9542e-003
600.313,157.95, 3.9587e-003
600.873,158.145, 3.9633e-003
601.428,158.34, 3.9670e-003
601.98,158.535, 3.9713e-003
602.536,158.73, 3.9760e-003
603.096,158.925, 3.9806e-003
603.653,159.12, 3.9841e-003
604.209,159.315, 3.9889e-003
604.767,159.51, 3.9934e-003
605.319,159.705, 3.9981e-003
605.874,159.9, 4.0027e-003
606.428,160.095, 4.0076e-003
606.982,160.29, 4.0120e-003
607.533,160.485, 4.0155e-003
608.085,160.68, 4.0205e-003
608.635,160.875, 4.0250e-003
609.189,161.07, 4.0298e-003
609.731,161.265, 4.0341e-003
610.284,161.46, 4.0386e-003
610.838,161.655, 4.0421e-003
611.384,161.85, 4.0469e-003
611.938,162.045, 4.0517e-003
612.487,162.24, 4.0566e-003
613.038,162.435, 4.0607e-003
613.584,162.63, 4.0654e-003
614.134,162.825, 4.0698e-003
614.677,163.02, 4.0735e-003
615.226,163.215, 4.0783e-003
615.77,163.41, 4.0827e-003
616.317,163.605, 4.0874e-003
616.854,163.8, 4.0919e-003
617.405,163.995, 4.0967e-003
617.949,164.19, 4.1013e-003
618.497,164.385, 4.1059e-003
619.042,164.58, 4.1105e-003
619.584,164.775, 4.1142e-003
620.135,164.97, 4.1192e-003
620.682,165.165, 4.1238e-003
621.226,165.36, 4.1283e-003
621.767,165.555, 4.1327e-003
622.31,165.75, 4.1374e-003
622.849,165.945, 4.1420e-003
623.396,166.14, 4.1463e-003
623.942,166.335, 4.1509e-003
624.485,166.53, 4.1555e-003
625.034,166.725, 4.1597e-003
625.582,166.92, 4.1647e-003
626.123,167.115, 4.1690e-003
626.673,167.31, 4.1736e-003
627.217,167.505, 4.1781e-003
627.756,167.7, 4.1828e-003
628.311,167.895, 4.1874e-003
628.854,168.09, 4.1922e-003
629.398,168.285, 4.1968e-003
629.938,168.48, 4.2013e-003
630.437,168.675, 4.2047e-003
630.977,168.87, 4.2093e-003
631.514,169.065, 4.2138e-003
632.061,169.26, 4.2183e-003
632.602,169.455, 4.2233e-003
633.135,169.65, 4.2277e-003
633.675,169.845, 4.2322e-003
634.219,170.04, 4.2369e-003
634.765,170.235, 4.2415e-003
635.305,170.43, 4.2461e-003
635.851,170.625, 4.2498e-003
636.383,170.82, 4.2542e-003
636.935,171.015, 4.2592e-003
637.477,171.21, 4.2635e-003
638.011,171.405, 4.2684e-003
638.558,171.6, 4.2729e-003
639.097,171.795, 4.2776e-003
639.64,171.99, 4.2825e-003
640.179,172.185, 4.2867e-003
640.716,172.38, 4.2913e-003
641.253,172.575, 4.2958e-003
641.789,172.77, 4.3003e-003
642.331,172.965, 4.3050e-003
642.877,173.16, 4.3094e-003
643.409,173.355, 4.3141e-003
643.951,173.55, 4.3188e-003
644.489,173.745, 4.3233e-003
645.021,173.94, 4.3278e-003
645.565,174.135, 4.3325e-003
646.096,174.33, 4.3369e-003
646.627,174.525, 4.3413e-003
647.166,174.72, 4.3457e-003
647.703,174.915, 4.3504e-003
648.24,175.11, 4.3545e-003
648.775,175.305, 4.3589e-003
649.303,175.5, 4.3636e-003
649.835,175.695, 4.3681e-003
650.374,175.89, 4.3728e-003
650.916,176.085, 4.3773e-003
651.446,176.28, 4.3816e-003
651.99,176.475, 4.3867e-003
652.528,176.67, 4.3910e-003
653.064,176.865, 4.3955e-003
653.601,177.06, 4.4000e-003
654.13,177.255, 4.4043e-003
654.667,177.45, 4.4090e-003
655.199,177.645, 4.4133e-003
655.739,177.84, 4.4182e-003
656.263,178.035, 4.4229e-003
656.794,178.23, 4.4278e-003
657.327,178.425, 4.4323e-003
657.849,178.62, 4.4350e-003
658.371,178.815, 4.4395e-003
658.897,179.01, 4.4447e-003
659.42,179.205, 4.4495e-003
659.932,179.4, 4.4542e-003
660.459,179.595, 4.4589e-003
660.979,179.79, 4.4638e-003
661.498,179.985, 4.4682e-003
662.019,180.18, 4.4723e-003
662.537,180.375, 4.4767e-003
663.064,180.57, 4.4815e-003
663.577,180.765, 4.4857e-003
664.114,180.96, 4.4899e-003
664.641,181.155, 4.4940e-003
665.173,181.35, 4.4979e-003
665.703,181.545, 4.5024e-003
666.245,181.74, 4.5070e-003
666.794,181.935, 4.5113e-003
667.332,182.13, 4.5156e-003
667.883,182.325, 4.5200e-003
668.428,182.52, 4.5244e-003
668.974,182.715, 4.5290e-003
669.52,182.91, 4.5330e-003
670.063,183.105, 4.5375e-003
670.612,183.3, 4.5420e-003
671.158,183.495, 4.5463e-003
671.71,183.69, 4.5509e-003
672.253,183.885, 4.5548e-003
672.791,184.08, 4.5592e-003
673.34,184.275, 4.5639e-003
673.88,184.47, 4.5685e-003
674.421,184.665, 4.5729e-003
674.956,184.86, 4.5775e-003
675.496,185.055, 4.5821e-003
676.035,185.25, 4.5867e-003
676.575,185.445, 4.5914e-003
677.118,185.64, 4.5959e-003
677.643,185.835, 4.5998e-003
678.186,186.03, 4.6045e-003
678.717,186.225, 4.6092e-003
679.248,186.42, 4.6134e-003
679.782,186.615, 4.6180e-003
680.312,186.81, 4.6223e-003
680.838,187.005, 4.6271e-003
681.375,187.2, 4.6314e-003
681.899,187.395, 4.6357e-003
682.424,187.59, 4.6402e-003
682.946,187.785, 4.6447e-003
683.471,187.98, 4.6492e-003
683.998,188.175, 4.6540e-003
684.522,188.37, 4.6581e-003
685.054,188.565, 4.6625e-003
685.58,188.76, 4.6671e-003
686.117,188.955, 4.6712e-003
686.642,189.15, 4.6762e-003
687.174,189.345, 4.6807e-003
687.696,189.54, 4.6848e-003
688.224,189.735, 4.6896e-003
688.747,189.93, 4.6942e-003
689.269,190.125, 4.6986e-003
689.791,190.32, 4.7032e-003
690.314,190.515, 4.7075e-003
690.824,190.71, 4.7115e-003
691.35,190.905, 4.7162e-003
691.878,191.1, 4.7205e-003
692.401,191.295, 4.7250e-003
692.915,191.49, 4.7295e-003
693.434,191.685, 4.7319e-003
693.954,191.88, 4.7365e-003
694.467,192.075, 4.7414e-003
694.981,192.27, 4.7459e-003
695.497,192.465, 4.7505e-003
696.009,192.66, 4.7547e-003
696.522,192.855, 4.7595e-003
697.028,193.05, 4.7637e-003
697.539,193.245, 4.7683e-003
698.054,193.44, 4.7726e-003
698.564,193.635, 4.7775e-003
699.077,193.83, 4.7818e-003
699.588,194.025, 4.7863e-003
700.097,194.22, 4.7904e-003
700.601,194.415, 4.7945e-003
701.117,194.61, 4.7992e-003
701.633,194.805, 4.8036e-003
702.14,195, 4.8081e-003
702.649,195.195, 4.8126e-003
703.16,195.39, 4.8170e-003
703.666,195.585, 4.8211e-003
704.175,195.78, 4.8257e-003
704.682,195.975, 4.8299e-003
705.199,196.17, 4.8344e-003
705.703,196.365, 4.8384e-003
706.211,196.56, 4.8427e-003
706.718,196.755, 4.8471e-003
707.226,196.95, 4.8514e-003
707.733,197.145, 4.8557e-003
708.241,197.34, 4.8601e-003
708.752,197.535, 4.8644e-003
709.264,197.73, 4.8690e-003
709.768,197.925, 4.8732e-003
710.277,198.12, 4.8776e-003
710.784,198.315, 4.8817e-003
711.305,198.51, 4.8861e-003
711.824,198.705, 4.8905e-003
712.337,198.9, 4.8951e-003
712.848,199.095, 4.8993e-003
713.362,199.29, 4.9038e-003
713.877,199.485, 4.9080e-003
714.393,199.68, 4.9125e-003
714.908,199.875, 4.9169e-003
715.412,200.07, 4.9213e-003
715.934,200.265, 4.9257e-003
716.451,200.46, 4.9304e-003
716.958,200.655, 4.9346e-003
717.471,200.85, 4.9389e-003
717.982,201.045, 4.9432e-003
718.49,201.24, 4.9475e-003
719.007,201.435, 4.9522e-003
719.523,201.63, 4.9566e-003
720.039,201.825, 4.9612e-003
720.552,202.02, 4.9654e-003
721.06,202.215, 4.9699e-003
721.572,202.41, 4.9743e-003
722.083,202.605, 4.9787e-003
722.589,202.8, 4.9831e-003
723.109,202.995, 4.9876e-003
723.628,203.19, 4.9923e-003
724.146,203.385, 4.9968e-003
724.66,203.58, 5.0011e-003
725.171,203.775, 5.0056e-003
725.672,203.97, 5.0102e-003
726.188,204.165, 5.0145e-003
726.701,204.36, 5.0192e-003
727.213,204.555, 5.0237e-003
727.727,204.75, 5.0283e-003
728.239,204.945, 5.0326e-003
728.746,205.14, 5.0373e-003
729.255,205.335, 5.0417e-003
729.766,205.53, 5.0465e-003
730.278,205.725, 5.0510e-003
730.785,205.92, 5.0558e-003
731.289,206.115, 5.0603e-003
731.792,206.31, 5.0647e-003
732.284,206.505, 5.0701e-003
732.782,206.7, 5.0749e-003
733.274,206.895, 5.0793e-003
733.768,207.09, 5.0842e-003
734.261,207.285, 5.0890e-003
734.746,207.48, 5.0934e-003
735.241,207.675, 5.0981e-003
735.741,207.87, 5.1024e-003
736.233,208.065, 5.1070e-003
736.73,208.26, 5.1113e-003
737.232,208.455, 5.1153e-003
737.733,208.65, 5.1199e-003
738.238,208.845, 5.1245e-003
738.745,209.04, 5.1286e-003
739.256,209.235, 5.1330e-003
739.766,209.43, 5.1373e-003
740.288,209.625, 5.1417e-003
740.803,209.82, 5.1461e-003
741.33,210.015, 5.1506e-003
741.857,210.21, 5.1550e-003
742.378,210.405, 5.1598e-003
742.901,210.6, 5.1638e-003
743.43,210.795, 5.1684e-003
743.955,210.99, 5.1730e-003
744.48,211.185, 5.1779e-003
745.002,211.38, 5.1823e-003
745.523,211.575, 5.1869e-003
746.042,211.77, 5.1913e-003
746.561,211.965, 5.1958e-003
747.079,212.16, 5.2006e-003
747.6,212.355, 5.2049e-003
748.118,212.55, 5.2097e-003
748.633,212.745, 5.2142e-003
749.144,212.94, 5.2185e-003
749.661,213.135, 5.2228e-003
750.181,213.33, 5.2273e-003
750.692,213.525, 5.2320e-003
751.22,213.72, 5.2367e-003
751.732,213.915, 5.2414e-003
752.249,214.11, 5.2456e-003
752.759,214.305, 5.2503e-003
753.27,214.5, 5.2550e-003
753.789,214.695, 5.2597e-003
754.298,214.89, 5.2643e-003
754.81,215.085, 5.2688e-003
755.331,215.28, 5.2733e-003
755.835,215.475, 5.2776e-003
756.35,215.67, 5.2824e-003
756.865,215.865, 5.2870e-003
757.375,216.06, 5.2913e-003
757.88,216.255, 5.2958e-003
758.391,216.45, 5.3001e-003
758.9,216.645, 5.3046e-003
759.41,216.84, 5.3093e-003
759.917,217.035, 5.3138e-003
760.427,217.23, 5.3184e-003
760.933,217.425, 5.3223e-003
761.439,217.62, 5.3270e-003
761.949,217.815, 5.3316e-003
762.452,218.01, 5.3361e-003
762.955,218.205, 5.3412e-003
763.461,218.4, 5.3458e-003
763.971,218.595, 5.3505e-003
764.474,218.79, 5.3552e-003
764.976,218.985, 5.3598e-003
765.475,219.18, 5.3642e-003
765.981,219.375, 5.3689e-003
766.494,219.57, 5.3734e-003
766.99,219.765, 5.3776e-003
767.491,219.96, 5.3825e-003
767.986,220.155, 5.3871e-003
768.49,220.35, 5.3914e-003
768.987,220.545, 5.3959e-003
769.485,220.74, 5.4006e-003
769.985,220.935, 5.4050e-003
770.492,221.13, 5.4097e-003
770.99,221.325, 5.4141e-003
771.502,221.52, 5.4190e-003
772.004,221.715, 5.4235e-003
772.518,221.91, 5.4284e-003
773.018,222.105, 5.4330e-003
773.523,222.3, 5.4371e-003
774.029,222.495, 5.4419e-003
774.528,222.69, 5.4464e-003
775.034,222.885, 5.4511e-003
775.536,223.08, 5.4564e-003
776.034,223.275, 5.4611e-003
776.528,223.47, 5.4657e-003
777.029,223.665, 5.4702e-003
777.529,223.86, 5.4750e-003
778.037,224.055, 5.4796e-003
778.539,224.25, 5.4842e-003
779.035,224.445, 5.4890e-003
779.533,224.64, 5.4935e-003
780.034,224.835, 5.4983e-003
780.522,225.03, 5.5028e-003
781.027,225.225, 5.5074e-003
781.525,225.42, 5.5125e-003
782.03,225.615, 5.5170e-003
782.533,225.81, 5.5218e-003
783.039,226.005, 5.5267e-003
783.536,226.2, 5.5310e-003
784.039,226.395, 5.5356e-003
784.538,226.59, 5.5404e-003
785.04,226.785, 5.5453e-003
785.538,226.98, 5.5500e-003
786.037,227.175, 5.5549e-003
786.538,227.37, 5.5595e-003
787.038,227.565, 5.5643e-003
787.536,227.76, 5.5691e-003
788.028,227.955, 5.5736e-003
788.528,228.15, 5.5782e-003
789.023,228.345, 5.5830e-003
789.517,228.54, 5.5878e-003
789.995,228.735, 5.5926e-003
790.472,228.93, 5.5975e-003
790.948,229.125, 5.6019e-003
791.417,229.32, 5.6068e-003
791.88,229.515, 5.6111e-003
792.342,229.71, 5.6156e-003
792.819,229.905, 5.6202e-003
793.293,230.1, 5.6248e-003
793.774,230.295, 5.6291e-003
794.257,230.49, 5.6337e-003
794.735,230.685, 5.6381e-003
795.226,230.88, 5.6429e-003
795.703,231.075, 5.6478e-003
796.182,231.27, 5.6530e-003
796.652,231.465, 5.6569e-003
797.115,231.66, 5.6616e-003
797.572,231.855, 5.6664e-003
798.022,232.05, 5.6712e-003
798.471,232.245, 5.6760e-003
798.919,232.44, 5.6809e-003
799.376,232.635, 5.6853e-003
799.827,232.83, 5.6900e-003
800.292,233.025, 5.6944e-003
800.752,233.22, 5.6991e-003
801.209,233.415, 5.7032e-003
801.679,233.61, 5.7074e-003
802.149,233.805, 5.7120e-003
802.63,234, 5.7161e-003
803.103,234.195, 5.7207e-003
803.598,234.39, 5.7252e-003
804.084,234.585, 5.7294e-003
804.566,234.78, 5.7337e-003
805.054,234.975, 5.7383e-003
805.54,235.17, 5.7427e-003
806.033,235.365, 5.7471e-003
806.525,235.56, 5.7517e-003
807,235.755, 5.7566e-003
807.486,235.95, 5.7615e-003
807.97,236.145, 5.7662e-003
808.44,236.34, 5.7708e-003
808.913,236.535, 5.7755e-003
809.38,236.73, 5.7797e-003
809.838,236.925, 5.7845e-003
810.293,237.12, 5.7898e-003
810.757,237.315, 5.7951e-003
811.214,237.51, 5.7999e-003
811.665,237.705, 5.8045e-003
812.116,237.9, 5.8091e-003
812.58,238.095, 5.8137e-003
813.035,238.29, 5.8179e-003
813.494,238.485, 5.8221e-003
813.959,238.68, 5.8266e-003
814.424,238.875, 5.8309e-003
814.888,239.07, 5.8350e-003
815.351,239.265, 5.8394e-003
815.814,239.46, 5.8439e-003
816.279,239.655, 5.8484e-003
816.741,239.85, 5.8533e-003
817.207,240.045, 5.8575e-003
817.675,240.24, 5.8623e-003
818.132,240.435, 5.8665e-003
818.607,240.63, 5.8713e-003
819.093,240.825, 5.8755e-003
819.571,241.02, 5.8800e-003
820.076,241.215, 5.8844e-003
820.585,241.41, 5.8888e-003
821.092,241.605, 5.8932e-003
821.609,241.8, 5.8974e-003
822.121,241.995, 5.9025e-003
822.636,242.19, 5.9071e-003
823.141,242.385, 5.9120e-003
823.648,242.58, 5.9167e-003
824.153,242.775, 5.9221e-003
824.644,242.97, 5.9269e-003
825.136,243.165, 5.9317e-003
825.629,243.36, 5.9365e-003
826.113,243.555, 5.9412e-003
826.59,243.75, 5.9457e-003
827.075,243.945, 5.9505e-003
827.562,244.14, 5.9551e-003
828.045,244.335, 5.9599e-003
828.538,244.53, 5.9639e-003
829.03,244.725, 5.9689e-003
829.526,244.92, 5.9737e-003
830.026,245.115, 5.9784e-003
830.523,245.31, 5.9834e-003
831.018,245.505, 5.9882e-003
831.507,245.7, 5.9930e-003
831.992,245.895, 5.9972e-003
832.484,246.09, 6.0033e-003
832.973,246.285, 6.0081e-003
833.466,246.48, 6.0129e-003
833.951,246.675, 6.0175e-003
834.452,246.87, 6.0224e-003
834.945,247.065, 6.0273e-003
835.441,247.26, 6.0323e-003
835.939,247.455, 6.0369e-003
836.446,247.65, 6.0417e-003
836.949,247.845, 6.0464e-003
837.445,248.04, 6.0512e-003
837.946,248.235, 6.0559e-003
838.447,248.43, 6.0609e-003
838.951,248.625, 6.0659e-003
839.451,248.82, 6.0708e-003
839.952,249.015, 6.0757e-003
840.45,249.21, 6.0806e-003
840.954,249.405, 6.0855e-003
841.456,249.6, 6.0903e-003
841.958,249.795, 6.0954e-003
842.457,249.99, 6.1001e-003
842.96,250.185, 6.1053e-003
843.463,250.38, 6.1100e-003
843.969,250.575, 6.1153e-003
844.468,250.77, 6.1204e-003
844.974,250.965, 6.1249e-003
845.478,251.16, 6.1300e-003
845.985,251.355, 6.1350e-003
846.491,251.55, 6.1399e-003
846.992,251.745, 6.1449e-003
847.498,251.94, 6.1499e-003
848.006,252.135, 6.1550e-003
848.509,252.33, 6.1595e-003
849.016,252.525, 6.1650e-003
849.519,252.72, 6.1698e-003
850.028,252.915, 6.1748e-003
850.535,253.11, 6.1795e-003
851.036,253.305, 6.1847e-003
851.538,253.5, 6.1899e-003
852.036,253.695, 6.1948e-003
852.527,253.89, 6.2000e-003
853.016,254.085, 6.2054e-003
853.502,254.28, 6.2109e-003
853.987,254.475, 6.2155e-003
854.469,254.67, 6.2207e-003
854.961,254.865, 6.2262e-003
855.436,255.06, 6.2314e-003
855.912,255.255, 6.2367e-003
856.386,255.45, 6.2416e-003
856.852,255.645, 6.2465e-003
857.317,255.84, 6.2516e-003
857.78,256.035, 6.2562e-003
858.248,256.23, 6.2613e-003
858.714,256.425, 6.2660e-003
859.179,256.62, 6.2709e-003
859.649,256.815, 6.2757e-003
860.119,257.01, 6.2807e-003
860.597,257.205, 6.2852e-003
861.081,257.4, 6.2899e-003
861.568,257.595, 6.2949e-003
862.07,257.79, 6.2998e-003
862.575,257.985, 6.3049e-003
863.082,258.18, 6.3097e-003
863.596,258.375, 6.3148e-003
864.11,258.57, 6.3199e-003
864.627,258.765, 6.3254e-003
865.146,258.96, 6.3306e-003
865.661,259.155, 6.3360e-003
866.179,259.35, 6.3408e-003
866.69,259.545, 6.3462e-003
867.212,259.74, 6.3517e-003
867.722,259.935, 6.3568e-003
868.231,260.13, 6.3619e-003
868.745,260.325, 6.3677e-003
869.251,260.52, 6.3729e-003
869.764,260.715, 6.3784e-003
870.276,260.91, 6.3834e-003
870.788,261.105, 6.3886e-003
871.301,261.3, 6.3938e-003
871.814,261.495, 6.3991e-003
872.325,261.69, 6.4041e-003
872.83,261.885, 6.4098e-003
873.321,262.08, 6.4149e-003
873.778,262.275, 6.4204e-003
874.245,262.47, 6.4257e-003
874.709,262.665, 6.4311e-003
875.185,262.86, 6.4359e-003
875.67,263.055, 6.4406e-003
876.16,263.25, 6.4456e-003
876.661,263.445, 6.4509e-003
877.17,263.64, 6.4561e-003
877.691,263.835, 6.4612e-003
878.192,264.03, 6.4664e-003
878.703,264.225, 6.4717e-003
879.209,264.42, 6.4773e-003
879.717,264.615, 6.4823e-003
879.884,264.68, 6.4842e-003