File: data/14.1mm-083019/moon000s1r1-15mm-091219.csv
#EXPORTTYPE:           ,DATA ALL
#FILE:                 ,moonstoneS1.ngb-sle
#FORMAT:               ,NETZSCH5
#FTYPE:                ,ANSI
#IDENTITY:             ,moonstone
#DECIMAL:              ,POINT
#SEPARATOR:            ,COMMA
#MTYPE:                ,DIL
#INSTRUMENT:           ,NETZSCH DIL 402C
#PROJECT:              ,feldspar
#DATE/TIME:            ,9/12/2019 10:20:17 AM (UTC-5)
#CORR. FILE:           ,
#TEMPCAL:              ,TCALZERO.TMX
#LABORATORY:           ,Mineral Physics
#OPERATOR:             ,PAG
#REMARK:               ,bare, norm start, for bytown and rocks moonstone Or-Ab solid soln box 1 prob 010 or 001thin
#SAMPLE:               ,fmu-box1
#SAMPLE LENGTH /mm:    ,14.978
#MATERIAL:             ,sapphire stnd
#MEASMODE:             ,Standard Expansion
#PURGE GAS 1:          ,ARGON
#FLOW RATE 1 /(ml/min):,75
#M.RANGE /µm:          ,500
#CORR. CODE:           ,010
#RANGE:                ,20.0°C/3.0(K/min)/900.0°C
#SEGMENT:              ,S1/1
#SEG. 1:               ,20.0°C/3.0(K/min)/900.0°C

##Temp./°C,Time/min,dL/Lo
 22.51000,  0.00000, 2.2189e-005
 22.54200,  0.17333, 2.4104e-005
 22.54200,  0.34667, 2.5673e-005
 22.55100,  0.52000, 2.6831e-005
 22.55800,  0.69333, 2.7673e-005
 22.56700,  0.86667, 2.8213e-005
 22.58400,  1.04000, 2.8669e-005
 22.58900,  1.21333, 2.8905e-005
 22.60300,  1.38667, 2.9147e-005
 22.60000,  1.56000, 2.9150e-005
 22.60000,  1.73333, 2.9009e-005
 22.60700,  1.90667, 2.8783e-005
 22.60700,  2.08000, 2.8658e-005
 22.62200,  2.25333, 2.8607e-005
 22.61800,  2.42667, 2.8328e-005
 22.63900,  2.60000, 2.8002e-005
 22.64700,  2.77333, 2.7834e-005
 22.65000,  2.94667, 2.7780e-005
 22.65600,  3.12000, 2.7222e-005
 22.65400,  3.29333, 2.6716e-005
 22.65300,  3.46667, 2.6450e-005
 22.67100,  3.64000, 2.6336e-005
 22.69100,  3.81333, 2.5478e-005
 22.73000,  3.98667, 2.4914e-005
 22.80800,  4.16000, 2.4203e-005
 22.91000,  4.33333, 2.2879e-005
 23.05400,  4.50667, 2.0712e-005
 23.24200,  4.68000, 1.8493e-005
 23.46600,  4.85333, 1.5863e-005
 23.73900,  5.02667, 1.2658e-005
 24.08200,  5.20000, 9.3118e-006
 24.47400,  5.37333, 5.9075e-006
 24.91700,  5.54667, 1.9843e-006
 25.40500,  5.72000,-1.7159e-006
 25.96800,  5.89333,-5.2284e-006
 26.56000,  6.06667,-9.2745e-006
 27.19800,  6.24000,-1.2897e-005
 27.87400,  6.41333,-1.6363e-005
 28.57800,  6.58667,-1.9417e-005
 29.31600,  6.76000,-2.2609e-005
 30.07800,  6.93333,-2.5101e-005
 30.87800,  7.10667,-2.6717e-005
 31.68000,  7.28000,-2.8516e-005
 32.49300,  7.45333,-2.9433e-005
 33.32700,  7.62667,-2.9804e-005
 34.16000,  7.80000,-3.0147e-005
 34.99400,  7.97333,-3.0172e-005
 35.81700,  8.14667,-2.9797e-005
 36.65300,  8.32000,-2.9186e-005
 37.48700,  8.49333,-2.8077e-005
 38.32600,  8.66667,-2.6539e-005
 39.15600,  8.84000,-2.4588e-005
 39.99200,  9.01333,-2.3201e-005
 40.82000,  9.18667,-2.0827e-005
 41.65500,  9.36000,-1.8944e-005
 42.49200,  9.53333,-1.6118e-005
 43.34200,  9.70667,-1.3865e-005
 44.19200,  9.88000,-1.0985e-005
 45.04400, 10.05333,-8.4057e-006
 45.90800, 10.22667,-5.6138e-006
 46.77800, 10.40000,-2.6857e-006
 47.65000, 10.57333, 1.9106e-007
 48.53100, 10.74667, 3.3757e-006
 49.42700, 10.92000, 6.1938e-006
 50.33400, 11.09333, 8.9419e-006
 51.25000, 11.26667, 1.2415e-005
 52.17800, 11.44000, 1.5517e-005
 53.11300, 11.61333, 1.9087e-005
 54.06200, 11.78667, 2.2300e-005
 55.01200, 11.96000, 2.6164e-005
 55.95900, 12.13333, 2.9431e-005
 56.91100, 12.30667, 3.3278e-005
 57.87000, 12.48000, 3.7377e-005
 58.84400, 12.65333, 4.1360e-005
 59.81100, 12.82667, 4.5510e-005
 60.77700, 13.00000, 5.0297e-005
 61.75000, 13.17333, 5.4359e-005
 62.72700, 13.34667, 5.9253e-005
 63.70000, 13.52000, 6.3944e-005
 64.67300, 13.69333, 6.9187e-005
 65.65200, 13.86667, 7.4725e-005
 66.60900, 14.04000, 7.9680e-005
 67.58900, 14.21333, 8.5395e-005
 68.55400, 14.38667, 9.0627e-005
 69.52000, 14.56000, 9.6678e-005
 70.48100, 14.73333, 1.0256e-004
 71.45000, 14.90667, 1.0836e-004
 72.41200, 15.08000, 1.1409e-004
 73.36300, 15.25333, 1.2038e-004
 74.31000, 15.42667, 1.2671e-004
 75.26700, 15.60000, 1.3309e-004
 76.22300, 15.77333, 1.3924e-004
 77.17300, 15.94667, 1.4561e-004
 78.12000, 16.12000, 1.5209e-004
 79.07500, 16.29333, 1.5859e-004
 80.00700, 16.46667, 1.6542e-004
 80.94300, 16.64000, 1.7143e-004
 81.88100, 16.81333, 1.7867e-004
 82.82300, 16.98667, 1.8536e-004
 83.75600, 17.16000, 1.9175e-004
 84.69000, 17.33333, 1.9861e-004
 85.60400, 17.50667, 2.0534e-004
 86.53000, 17.68000, 2.1202e-004
 87.45700, 17.85333, 2.1942e-004
 88.36500, 18.02667, 2.2622e-004
 89.28400, 18.20000, 2.3283e-004
 90.18700, 18.37333, 2.3959e-004
 91.10100, 18.54667, 2.4649e-004
 92.01000, 18.72000, 2.5345e-004
 92.91700, 18.89333, 2.6079e-004
 93.83100, 19.06667, 2.6727e-004
 94.72000, 19.24000, 2.7438e-004
 95.63600, 19.41333, 2.8154e-004
 96.52900, 19.58667, 2.8843e-004
 97.42400, 19.76000, 2.9545e-004
 98.30900, 19.93333, 3.0261e-004
 99.19900, 20.10667, 3.0959e-004
100.075, 20.28000, 3.1660e-004
100.962, 20.45333, 3.2369e-004
101.848, 20.62667, 3.3092e-004
102.723, 20.80000, 3.3769e-004
103.6, 20.97333, 3.4500e-004
104.47, 21.14667, 3.5178e-004
105.335, 21.32000, 3.5897e-004
106.211, 21.49333, 3.6632e-004
107.077, 21.66667, 3.7273e-004
107.941, 21.84000, 3.8028e-004
108.791, 22.01333, 3.8718e-004
109.66, 22.18667, 3.9392e-004
110.515, 22.36000, 4.0111e-004
111.374, 22.53333, 4.0831e-004
112.231, 22.70667, 4.1561e-004
113.088, 22.88000, 4.2273e-004
113.938, 23.05333, 4.2985e-004
114.785, 23.22667, 4.3634e-004
115.639, 23.40000, 4.4336e-004
116.494, 23.57333, 4.5049e-004
117.342, 23.74667, 4.5768e-004
118.189, 23.92000, 4.6429e-004
119.034, 24.09333, 4.7138e-004
119.883, 24.26667, 4.7887e-004
120.73, 24.44000, 4.8525e-004
121.565, 24.61333, 4.9224e-004
122.411, 24.78667, 4.9951e-004
123.244, 24.96000, 5.0627e-004
124.088, 25.13333, 5.1362e-004
124.922, 25.30667, 5.2064e-004
125.758, 25.48000, 5.2751e-004
126.598, 25.65333, 5.3441e-004
127.428, 25.82667, 5.4146e-004
128.266, 26.00000, 5.4818e-004
129.093, 26.17333, 5.5515e-004
129.922, 26.34667, 5.6225e-004
130.76, 26.52000, 5.6939e-004
131.584, 26.69333, 5.7586e-004
132.408, 26.86667, 5.8325e-004
133.232, 27.04000, 5.9033e-004
134.057, 27.21333, 5.9693e-004
134.881, 27.38667, 6.0413e-004
135.701, 27.56000, 6.1128e-004
136.53, 27.73333, 6.1841e-004
137.335, 27.90667, 6.2497e-004
138.153, 28.08000, 6.3221e-004
138.97, 28.25333, 6.3925e-004
139.801, 28.42667, 6.4583e-004
140.606, 28.60000, 6.5277e-004
141.421, 28.77333, 6.5971e-004
142.23, 28.94667, 6.6623e-004
143.041, 29.12000, 6.7331e-004
143.854, 29.29333, 6.8026e-004
144.685, 29.46667, 6.8734e-004
145.497, 29.64000, 6.9448e-004
146.301, 29.81333, 7.0082e-004
147.112, 29.98667, 7.0795e-004
147.913, 30.16000, 7.1501e-004
148.71, 30.33333, 7.2194e-004
149.519, 30.50667, 7.2886e-004
150.329, 30.68000, 7.3572e-004
151.139, 30.85333, 7.4271e-004
151.939, 31.02667, 7.4953e-004
152.747, 31.20000, 7.5622e-004
153.547, 31.37333, 7.6318e-004
154.341, 31.54667, 7.7029e-004
155.148, 31.72000, 7.7740e-004
155.944, 31.89333, 7.8450e-004
156.75, 32.06667, 7.9079e-004
157.54, 32.24000, 7.9793e-004
158.331, 32.41333, 8.0491e-004
159.131, 32.58667, 8.1206e-004
159.931, 32.76000, 8.1853e-004
160.73, 32.93333, 8.2557e-004
161.519, 33.10667, 8.3235e-004
162.31, 33.28000, 8.3902e-004
163.104, 33.45333, 8.4620e-004
163.9, 33.62667, 8.5337e-004
164.701, 33.80000, 8.5991e-004
165.492, 33.97333, 8.6678e-004
166.287, 34.14667, 8.7341e-004
167.072, 34.32000, 8.8047e-004
167.853, 34.49333, 8.8748e-004
168.637, 34.66667, 8.9417e-004
169.433, 34.84000, 9.0082e-004
170.209, 35.01333, 9.0774e-004
170.994, 35.18667, 9.1463e-004
171.784, 35.36000, 9.2178e-004
172.566, 35.53333, 9.2863e-004
173.355, 35.70667, 9.3534e-004
174.138, 35.88000, 9.4231e-004
174.927, 36.05333, 9.4945e-004
175.712, 36.22667, 9.5653e-004
176.493, 36.40000, 9.6296e-004
177.273, 36.57333, 9.7000e-004
178.05, 36.74667, 9.7700e-004
178.832, 36.92000, 9.8398e-004
179.606, 37.09333, 9.9069e-004
180.376, 37.26667, 9.9750e-004
181.163, 37.44000, 1.0046e-003
181.945, 37.61333, 1.0112e-003
182.724, 37.78667, 1.0181e-003
183.5, 37.96000, 1.0254e-003
184.284, 38.13333, 1.0325e-003
185.052, 38.30667, 1.0387e-003
185.822, 38.48000, 1.0458e-003
186.595, 38.65333, 1.0527e-003
187.376, 38.82667, 1.0598e-003
188.144, 39.00000, 1.0667e-003
188.916, 39.17333, 1.0737e-003
189.688, 39.34667, 1.0810e-003
190.458, 39.52000, 1.0872e-003
191.233, 39.69333, 1.0943e-003
192.004, 39.86667, 1.1013e-003
192.775, 40.04000, 1.1083e-003
193.532, 40.21333, 1.1151e-003
194.296, 40.38667, 1.1217e-003
195.067, 40.56000, 1.1287e-003
195.835, 40.73333, 1.1359e-003
196.61, 40.90667, 1.1427e-003
197.374, 41.08000, 1.1497e-003
198.133, 41.25333, 1.1567e-003
198.9, 41.42667, 1.1636e-003
199.66, 41.60000, 1.1703e-003
200.415, 41.77333, 1.1770e-003
201.173, 41.94667, 1.1839e-003
201.935, 42.12000, 1.1909e-003
202.697, 42.29333, 1.1980e-003
203.455, 42.46667, 1.2048e-003
204.21, 42.64000, 1.2117e-003
204.972, 42.81333, 1.2187e-003
205.725, 42.98667, 1.2256e-003
206.487, 43.16000, 1.2327e-003
207.234, 43.33333, 1.2393e-003
207.992, 43.50667, 1.2461e-003
208.744, 43.68000, 1.2531e-003
209.491, 43.85333, 1.2601e-003
210.247, 44.02667, 1.2664e-003
210.991, 44.20000, 1.2735e-003
211.752, 44.37333, 1.2806e-003
212.494, 44.54667, 1.2873e-003
213.242, 44.72000, 1.2940e-003
213.996, 44.89333, 1.3011e-003
214.739, 45.06667, 1.3080e-003
215.488, 45.24000, 1.3151e-003
216.231, 45.41333, 1.3219e-003
216.969, 45.58667, 1.3287e-003
217.715, 45.76000, 1.3354e-003
218.46, 45.93333, 1.3428e-003
219.207, 46.10667, 1.3497e-003
219.947, 46.28000, 1.3567e-003
220.694, 46.45333, 1.3636e-003
221.431, 46.62667, 1.3709e-003
222.168, 46.80000, 1.3770e-003
222.9, 46.97333, 1.3840e-003
223.637, 47.14667, 1.3912e-003
224.369, 47.32000, 1.3979e-003
225.119, 47.49333, 1.4049e-003
225.852, 47.66667, 1.4120e-003
226.595, 47.84000, 1.4188e-003
227.333, 48.01333, 1.4260e-003
228.074, 48.18667, 1.4331e-003
228.807, 48.36000, 1.4400e-003
229.542, 48.53333, 1.4465e-003
230.268, 48.70667, 1.4534e-003
231.004, 48.88000, 1.4605e-003
231.737, 49.05333, 1.4674e-003
232.46, 49.22667, 1.4743e-003
233.191, 49.40000, 1.4814e-003
233.922, 49.57333, 1.4884e-003
234.659, 49.74667, 1.4956e-003
235.391, 49.92000, 1.5022e-003
236.117, 50.09333, 1.5091e-003
236.833, 50.26667, 1.5156e-003
237.554, 50.44000, 1.5228e-003
238.276, 50.61333, 1.5298e-003
239, 50.78667, 1.5367e-003
239.709, 50.96000, 1.5438e-003
240.44, 51.13333, 1.5510e-003
241.166, 51.30667, 1.5577e-003
241.887, 51.48000, 1.5649e-003
242.615, 51.65333, 1.5714e-003
243.34, 51.82667, 1.5787e-003
244.066, 52.00000, 1.5856e-003
244.785, 52.17333, 1.5926e-003
245.492, 52.34667, 1.5996e-003
246.2, 52.52000, 1.6065e-003
246.925, 52.69333, 1.6131e-003
247.646, 52.86667, 1.6205e-003
248.361, 53.04000, 1.6274e-003
249.072, 53.21333, 1.6342e-003
249.779, 53.38667, 1.6413e-003
250.501, 53.56000, 1.6483e-003
251.216, 53.73333, 1.6554e-003
251.93, 53.90667, 1.6622e-003
252.641, 54.08000, 1.6691e-003
253.355, 54.25333, 1.6758e-003
254.064, 54.42667, 1.6829e-003
254.775, 54.60000, 1.6898e-003
255.488, 54.77333, 1.6970e-003
256.195, 54.94667, 1.7040e-003
256.909, 55.12000, 1.7107e-003
257.622, 55.29333, 1.7182e-003
258.328, 55.46667, 1.7250e-003
259.035, 55.64000, 1.7322e-003
259.739, 55.81333, 1.7385e-003
260.446, 55.98667, 1.7456e-003
261.149, 56.16000, 1.7526e-003
261.851, 56.33333, 1.7593e-003
262.56, 56.50667, 1.7664e-003
263.252, 56.68000, 1.7732e-003
263.959, 56.85333, 1.7803e-003
264.657, 57.02667, 1.7875e-003
265.358, 57.20000, 1.7943e-003
266.065, 57.37333, 1.8018e-003
266.747, 57.54667, 1.8080e-003
267.45, 57.72000, 1.8151e-003
268.146, 57.89333, 1.8220e-003
268.844, 58.06667, 1.8290e-003
269.541, 58.24000, 1.8358e-003
270.233, 58.41333, 1.8431e-003
270.924, 58.58667, 1.8497e-003
271.621, 58.76000, 1.8569e-003
272.314, 58.93333, 1.8637e-003
272.993, 59.10667, 1.8708e-003
273.679, 59.28000, 1.8779e-003
274.381, 59.45333, 1.8848e-003
275.071, 59.62667, 1.8920e-003
275.761, 59.80000, 1.8990e-003
276.459, 59.97333, 1.9062e-003
277.141, 60.14667, 1.9130e-003
277.826, 60.32000, 1.9200e-003
278.517, 60.49333, 1.9271e-003
279.19, 60.66667, 1.9337e-003
279.875, 60.84000, 1.9406e-003
280.566, 61.01333, 1.9478e-003
281.253, 61.18667, 1.9549e-003
281.933, 61.36000, 1.9619e-003
282.63, 61.53333, 1.9691e-003
283.317, 61.70667, 1.9760e-003
283.988, 61.88000, 1.9831e-003
284.668, 62.05333, 1.9893e-003
285.347, 62.22667, 1.9968e-003
286.036, 62.40000, 2.0039e-003
286.712, 62.57333, 2.0105e-003
287.393, 62.74667, 2.0176e-003
288.073, 62.92000, 2.0248e-003
288.754, 63.09333, 2.0318e-003
289.429, 63.26667, 2.0391e-003
290.109, 63.44000, 2.0462e-003
290.784, 63.61333, 2.0530e-003
291.457, 63.78667, 2.0603e-003
292.134, 63.96000, 2.0672e-003
292.809, 64.13333, 2.0745e-003
293.478, 64.30667, 2.0819e-003
294.155, 64.48000, 2.0892e-003
294.825, 64.65333, 2.0964e-003
295.493, 64.82667, 2.1038e-003
296.165, 65.00000, 2.1107e-003
296.842, 65.17333, 2.1177e-003
297.508, 65.34667, 2.1247e-003
298.181, 65.52000, 2.1319e-003
298.846, 65.69333, 2.1393e-003
299.512, 65.86667, 2.1456e-003
300.181, 66.04000, 2.1529e-003
300.847, 66.21333, 2.1601e-003
301.51, 66.38667, 2.1673e-003
302.184, 66.56000, 2.1746e-003
302.855, 66.73333, 2.1820e-003
303.523, 66.90667, 2.1887e-003
304.186, 67.08000, 2.1961e-003
304.855, 67.25333, 2.2030e-003
305.52, 67.42667, 2.2100e-003
306.186, 67.60000, 2.2171e-003
306.85, 67.77333, 2.2243e-003
307.511, 67.94667, 2.2310e-003
308.166, 68.12000, 2.2379e-003
308.829, 68.29333, 2.2455e-003
309.491, 68.46667, 2.2527e-003
310.149, 68.64000, 2.2602e-003
310.799, 68.81333, 2.2673e-003
311.461, 68.98667, 2.2745e-003
312.117, 69.16000, 2.2819e-003
312.77, 69.33333, 2.2894e-003
313.427, 69.50667, 2.2964e-003
314.092, 69.68000, 2.3039e-003
314.747, 69.85333, 2.3113e-003
315.391, 70.02667, 2.3184e-003
316.042, 70.20000, 2.3257e-003
316.705, 70.37333, 2.3333e-003
317.357, 70.54667, 2.3408e-003
318.012, 70.72000, 2.3483e-003
318.67, 70.89333, 2.3572e-003
319.319, 71.06667, 2.3652e-003
319.97, 71.24000, 2.3738e-003
320.625, 71.41333, 2.3941e-003
321.277, 71.58667, 2.3984e-003
321.925, 71.76000, 2.4049e-003
322.582, 71.93333, 2.4121e-003
323.226, 72.10667, 2.4198e-003
323.877, 72.28000, 2.4262e-003
324.522, 72.45333, 2.4374e-003
325.166, 72.62667, 2.4497e-003
325.811, 72.80000, 2.4586e-003
326.459, 72.97333, 2.4613e-003
327.101, 73.14667, 2.4705e-003
327.742, 73.32000, 2.4761e-003
328.376, 73.49333, 2.4809e-003
329.025, 73.66667, 2.4870e-003
329.655, 73.84000, 2.4945e-003
330.295, 74.01333, 2.5020e-003
330.929, 74.18667, 2.5952e-003
331.566, 74.36000, 2.5918e-003
332.218, 74.53333, 2.6064e-003
332.849, 74.70667, 2.6061e-003
333.485, 74.88000, 2.6101e-003
334.125, 75.05333, 2.7235e-003
334.755, 75.22667, 2.7002e-003
335.394, 75.40000, 2.7031e-003
336.033, 75.57333, 2.7513e-003
336.667, 75.74667, 2.7502e-003
337.303, 75.92000, 2.7523e-003
337.935, 76.09333, 2.7569e-003
338.576, 76.26667, 2.7654e-003
339.213, 76.44000, 2.7733e-003
339.848, 76.61333, 3.0322e-003
340.476, 76.78667, 3.0666e-003
341.111, 76.96000, 3.0585e-003
341.733, 77.13333, 3.0628e-003
342.373, 77.30667, 3.0641e-003
343.007, 77.48000, 3.0667e-003
343.632, 77.65333, 3.0708e-003
344.265, 77.82667, 3.0740e-003
344.899, 78.00000, 3.1353e-003
345.533, 78.17333, 3.1317e-003
346.158, 78.34667, 3.1308e-003
346.79, 78.52000, 3.1360e-003
347.415, 78.69333, 3.1365e-003
348.046, 78.86667, 3.1410e-003
348.667, 79.04000, 3.1446e-003
349.296, 79.21333, 3.1482e-003
349.927, 79.38667, 3.1534e-003
350.556, 79.56000, 3.1568e-003
351.176, 79.73333, 3.1596e-003
351.806, 79.90667, 3.1664e-003
352.424, 80.08000, 3.1687e-003
353.047, 80.25333, 3.1735e-003
353.67, 80.42667, 3.1773e-003
354.289, 80.60000, 3.1830e-003
354.921, 80.77333, 3.1880e-003
355.532, 80.94667, 3.1934e-003
356.153, 81.12000, 3.1977e-003
356.778, 81.29333, 3.3279e-003
357.4, 81.46667, 3.2885e-003
358.017, 81.64000, 3.2901e-003
358.641, 81.81333, 3.2936e-003
359.259, 81.98667, 3.2971e-003
359.883, 82.16000, 3.3038e-003
360.502, 82.33333, 3.3061e-003
361.103, 82.50667, 3.3365e-003
361.728, 82.68000, 3.3218e-003
362.339, 82.85333, 3.3263e-003
362.957, 83.02667, 3.3315e-003
363.581, 83.20000, 3.3383e-003
364.193, 83.37333, 3.3422e-003
364.808, 83.54667, 3.3476e-003
365.42, 83.72000, 3.3488e-003
366.043, 83.89333, 3.3519e-003
366.65, 84.06667, 3.3555e-003
367.264, 84.24000, 3.3607e-003
367.877, 84.41333, 3.3743e-003
368.495, 84.58667, 3.3725e-003
369.11, 84.76000, 3.3757e-003
369.721, 84.93333, 3.3808e-003
370.337, 85.10667, 3.3872e-003
370.944, 85.28000, 3.3901e-003
371.549, 85.45333, 3.4164e-003
372.161, 85.62667, 3.4096e-003
372.764, 85.80000, 3.4288e-003
373.377, 85.97333, 3.4324e-003
373.98, 86.14667, 3.4359e-003
374.591, 86.32000, 3.4459e-003
375.191, 86.49333, 3.4475e-003
375.796, 86.66667, 3.4514e-003
376.398, 86.84000, 3.4574e-003
376.994, 87.01333, 3.4616e-003
377.598, 87.18667, 3.4667e-003
378.185, 87.36000, 3.4710e-003
378.779, 87.53333, 3.4770e-003
379.374, 87.70667, 3.4915e-003
379.963, 87.88000, 3.4929e-003
380.559, 88.05333, 3.4964e-003
381.153, 88.22667, 3.5013e-003
381.739, 88.40000, 3.5093e-003
382.337, 88.57333, 3.5158e-003
382.939, 88.74667, 3.5153e-003
383.538, 88.92000, 3.5194e-003
384.138, 89.09333, 3.5258e-003
384.754, 89.26667, 3.5299e-003
385.362, 89.44000, 3.5340e-003
385.985, 89.61333, 3.5588e-003
386.601, 89.78667, 3.5754e-003
387.22, 89.96000, 3.5624e-003
387.848, 90.13333, 3.5661e-003
388.469, 90.30667, 3.5697e-003
389.095, 90.48000, 3.5743e-003
389.72, 90.65333, 3.5794e-003
390.351, 90.82667, 3.5837e-003
390.979, 91.00000, 3.5896e-003
391.605, 91.17333, 3.5944e-003
392.231, 91.34667, 3.6114e-003
392.855, 91.52000, 3.6076e-003
393.487, 91.69333, 3.6099e-003
394.107, 91.86667, 3.6152e-003
394.722, 92.04000, 3.6195e-003
395.338, 92.21333, 3.6349e-003
395.957, 92.38667, 3.6395e-003
396.576, 92.56000, 3.6433e-003
397.184, 92.73333, 3.6479e-003
397.802, 92.90667, 3.6527e-003
398.41, 93.08000, 3.6721e-003
399.027, 93.25333, 3.6762e-003
399.639, 93.42667, 3.6800e-003
400.241, 93.60000, 3.6846e-003
400.854, 93.77333, 3.6894e-003
401.453, 93.94667, 3.6944e-003
402.067, 94.12000, 3.6995e-003
402.669, 94.29333, 3.7043e-003
403.272, 94.46667, 3.7102e-003
403.861, 94.64000, 3.7266e-003
404.475, 94.81333, 3.7288e-003
405.074, 94.98667, 3.7324e-003
405.67, 95.16000, 3.7369e-003
406.264, 95.33333, 3.7436e-003
406.857, 95.50667, 3.7504e-003
407.451, 95.68000, 3.7517e-003
408.049, 95.85333, 3.7569e-003
408.638, 96.02667, 3.7616e-003
409.237, 96.20000, 3.7675e-003
409.829, 96.37333, 3.7718e-003
410.418, 96.54667, 3.7782e-003
411.008, 96.72000, 3.7826e-003
411.597, 96.89333, 3.7869e-003
412.18, 97.06667, 3.7918e-003
412.779, 97.24000, 3.7972e-003
413.36, 97.41333, 3.8023e-003
413.944, 97.58667, 3.8065e-003
414.523, 97.76000, 3.8116e-003
415.105, 97.93333, 3.8173e-003
415.685, 98.10667, 3.8256e-003
416.27, 98.28000, 3.8287e-003
416.854, 98.45333, 3.8331e-003
417.435, 98.62667, 3.8376e-003
418.006, 98.80000, 3.8427e-003
418.589, 98.97333, 3.8482e-003
419.175, 99.14667, 3.8528e-003
419.749, 99.32000, 3.8588e-003
420.333, 99.49333, 3.8630e-003
420.905, 99.66667, 3.8675e-003
421.477, 99.84000, 3.8728e-003
422.054,100.013, 3.8776e-003
422.629,100.187, 3.8844e-003
423.2,100.36, 3.8885e-003
423.78,100.533, 3.8928e-003
424.348,100.707, 3.8983e-003
424.924,100.88, 3.9033e-003
425.502,101.053, 3.9082e-003
426.077,101.227, 3.9171e-003
426.647,101.4, 3.9189e-003
427.217,101.573, 3.9237e-003
427.784,101.747, 3.9286e-003
428.347,101.92, 3.9327e-003
428.914,102.093, 3.9379e-003
429.488,102.267, 3.9430e-003
430.064,102.44, 3.9482e-003
430.628,102.613, 3.9629e-003
431.192,102.787, 3.9633e-003
431.763,102.96, 3.9674e-003
432.333,103.133, 3.9719e-003
432.904,103.307, 3.9770e-003
433.479,103.48, 3.9825e-003
434.048,103.653, 3.9878e-003
434.602,103.827, 3.9925e-003
435.171,104, 4.0289e-003
435.739,104.173, 4.0148e-003
436.303,104.347, 4.0159e-003
436.868,104.52, 4.0201e-003
437.433,104.693, 4.0251e-003
437.989,104.867, 4.0294e-003
438.565,105.04, 4.0346e-003
439.125,105.213, 4.0394e-003
439.679,105.387, 4.0443e-003
440.246,105.56, 4.0495e-003
440.806,105.733, 4.0546e-003
441.367,105.907, 4.0602e-003
441.929,106.08, 4.0649e-003
442.494,106.253, 4.0700e-003
443.054,106.427, 4.0751e-003
443.616,106.6, 4.0802e-003
444.17,106.773, 4.0849e-003
444.735,106.947, 4.0900e-003
445.299,107.12, 4.0951e-003
445.857,107.293, 4.1002e-003
446.411,107.467, 4.1052e-003
446.977,107.64, 4.1106e-003
447.533,107.813, 4.1154e-003
448.094,107.987, 4.1203e-003
448.653,108.16, 4.1255e-003
449.213,108.333, 4.1299e-003
449.766,108.507, 4.1349e-003
450.325,108.68, 4.1401e-003
450.884,108.853, 4.1451e-003
451.438,109.027, 4.1504e-003
451.999,109.2, 4.1554e-003
452.554,109.373, 4.1602e-003
453.112,109.547, 4.1660e-003
453.671,109.72, 4.1707e-003
454.223,109.893, 4.1754e-003
454.78,110.067, 4.1805e-003
455.332,110.24, 4.1857e-003
455.884,110.413, 4.1911e-003
456.439,110.587, 4.1960e-003
456.994,110.76, 4.2018e-003
457.545,110.933, 4.2061e-003
458.097,111.107, 4.2109e-003
458.647,111.28, 4.2158e-003
459.205,111.453, 4.2212e-003
459.758,111.627, 4.2263e-003
460.315,111.8, 4.2310e-003
460.863,111.973, 4.2365e-003
461.416,112.147, 4.2415e-003
461.952,112.32, 4.2463e-003
462.503,112.493, 4.2509e-003
463.068,112.667, 4.2560e-003
463.616,112.84, 4.2611e-003
464.166,113.013, 4.2663e-003
464.717,113.187, 4.2714e-003
465.269,113.36, 4.2767e-003
465.82,113.533, 4.2814e-003
466.37,113.707, 4.2864e-003
466.921,113.88, 4.2920e-003
467.466,114.053, 4.2962e-003
468.017,114.227, 4.3016e-003
468.57,114.4, 4.3064e-003
469.11,114.573, 4.3143e-003
469.66,114.747, 4.3198e-003
470.21,114.92, 4.3229e-003
470.759,115.093, 4.3274e-003
471.305,115.267, 4.3325e-003
471.849,115.44, 4.3377e-003
472.397,115.613, 4.3426e-003
472.943,115.787, 4.3476e-003
473.487,115.96, 4.3528e-003
474.038,116.133, 4.3577e-003
474.573,116.307, 4.3627e-003
475.122,116.48, 4.3677e-003
475.661,116.653, 4.3734e-003
476.205,116.827, 4.3779e-003
476.746,117, 4.3831e-003
477.295,117.173, 4.3881e-003
477.833,117.347, 4.3928e-003
478.381,117.52, 4.3981e-003
478.928,117.693, 4.4035e-003
479.464,117.867, 4.4086e-003
480.008,118.04, 4.4135e-003
480.553,118.213, 4.4189e-003
481.099,118.387, 4.4242e-003
481.634,118.56, 4.4290e-003
482.171,118.733, 4.4340e-003
482.724,118.907, 4.4394e-003
483.266,119.08, 4.4446e-003
483.805,119.253, 4.4499e-003
484.342,119.427, 4.4548e-003
484.885,119.6, 4.4600e-003
485.426,119.773, 4.4650e-003
485.959,119.947, 4.4699e-003
486.501,120.12, 4.4754e-003
487.043,120.293, 4.4807e-003
487.587,120.467, 4.4852e-003
488.116,120.64, 4.4900e-003
488.652,120.813, 4.4951e-003
489.189,120.987, 4.5000e-003
489.736,121.16, 4.5054e-003
490.27,121.333, 4.5106e-003
490.807,121.507, 4.5156e-003
491.344,121.68, 4.5210e-003
491.876,121.853, 4.5257e-003
492.409,122.027, 4.5309e-003
492.949,122.2, 4.5363e-003
493.474,122.373, 4.5410e-003
494.014,122.547, 4.5459e-003
494.548,122.72, 4.5511e-003
495.074,122.893, 4.5558e-003
495.606,123.067, 4.5605e-003
496.14,123.24, 4.5655e-003
496.679,123.413, 4.5707e-003
497.206,123.587, 4.5759e-003
497.738,123.76, 4.5810e-003
498.28,123.933, 4.5863e-003
498.826,124.107, 4.5917e-003
499.352,124.28, 4.5964e-003
499.891,124.453, 4.6015e-003
500.422,124.627, 4.6064e-003
500.957,124.8, 4.6113e-003
501.494,124.973, 4.6165e-003
502.026,125.147, 4.6217e-003
502.562,125.32, 4.6266e-003
503.089,125.493, 4.6317e-003
503.624,125.667, 4.6367e-003
504.157,125.84, 4.6411e-003
504.684,126.013, 4.6464e-003
505.214,126.187, 4.6515e-003
505.747,126.36, 4.6563e-003
506.269,126.533, 4.6617e-003
506.802,126.707, 4.6665e-003
507.335,126.88, 4.6713e-003
507.866,127.053, 4.6764e-003
508.388,127.227, 4.6813e-003
508.918,127.4, 4.6862e-003
509.449,127.573, 4.6925e-003
509.976,127.747, 4.6973e-003
510.51,127.92, 4.7018e-003
511.04,128.093, 4.7070e-003
511.568,128.267, 4.7119e-003
512.097,128.44, 4.7168e-003
512.628,128.613, 4.7218e-003
513.159,128.787, 4.7269e-003
513.685,128.96, 4.7325e-003
514.214,129.133, 4.7373e-003
514.729,129.307, 4.7419e-003
515.258,129.48, 4.7466e-003
515.774,129.653, 4.7517e-003
516.3,129.827, 4.7568e-003
516.822,130, 4.7619e-003
517.338,130.173, 4.7669e-003
517.857,130.347, 4.7721e-003
518.374,130.52, 4.7771e-003
518.901,130.693, 4.7825e-003
519.424,130.867, 4.7879e-003
519.941,131.04, 4.7943e-003
520.459,131.213, 4.8000e-003
520.977,131.387, 4.8049e-003
521.489,131.56, 4.8097e-003
522.001,131.733, 4.8147e-003
522.514,131.907, 4.8206e-003
523.022,132.08, 4.8250e-003
523.53,132.253, 4.8301e-003
524.037,132.427, 4.8352e-003
524.544,132.6, 4.8402e-003
525.062,132.773, 4.8451e-003
525.579,132.947, 4.8503e-003
526.096,133.12, 4.8551e-003
526.612,133.293, 4.8601e-003
527.133,133.467, 4.8651e-003
527.652,133.64, 4.8694e-003
528.183,133.813, 4.8743e-003
528.709,133.987, 4.8783e-003
529.239,134.16, 4.8834e-003
529.775,134.333, 4.8883e-003
530.311,134.507, 4.8929e-003
530.854,134.68, 4.8977e-003
531.386,134.853, 4.9030e-003
531.935,135.027, 4.9082e-003
532.477,135.2, 4.9131e-003
533.019,135.373, 4.9186e-003
533.557,135.547, 4.9231e-003
534.1,135.72, 4.9281e-003
534.64,135.893, 4.9336e-003
535.181,136.067, 4.9395e-003
535.725,136.24, 4.9445e-003
536.258,136.413, 4.9492e-003
536.798,136.587, 4.9541e-003
537.338,136.76, 4.9590e-003
537.857,136.933, 4.9640e-003
538.397,137.107, 4.9690e-003
538.922,137.28, 4.9740e-003
539.453,137.453, 4.9787e-003
539.983,137.627, 4.9836e-003
540.51,137.8, 4.9886e-003
541.022,137.973, 4.9936e-003
541.564,138.147, 4.9992e-003
542.087,138.32, 5.0039e-003
542.609,138.493, 5.0087e-003
543.132,138.667, 5.0140e-003
543.66,138.84, 5.0191e-003
544.182,139.013, 5.0241e-003
544.7,139.187, 5.0291e-003
545.226,139.36, 5.0340e-003
545.752,139.533, 5.0391e-003
546.267,139.707, 5.0444e-003
546.782,139.88, 5.0494e-003
547.3,140.053, 5.0538e-003
547.819,140.227, 5.0587e-003
548.344,140.4, 5.0635e-003
548.864,140.573, 5.0684e-003
549.38,140.747, 5.0737e-003
549.889,140.92, 5.0785e-003
550.408,141.093, 5.0831e-003
550.92,141.267, 5.0880e-003
551.435,141.44, 5.0927e-003
551.948,141.613, 5.0977e-003
552.462,141.787, 5.1083e-003
552.974,141.96, 5.1145e-003
553.487,142.133, 5.1181e-003
554.002,142.307, 5.1225e-003
554.521,142.48, 5.1269e-003
555.027,142.653, 5.1312e-003
555.544,142.827, 5.1357e-003
556.051,143, 5.1404e-003
556.557,143.173, 5.1454e-003
557.071,143.347, 5.1501e-003
557.568,143.52, 5.1552e-003
558.072,143.693, 5.1602e-003
558.57,143.867, 5.1641e-003
559.072,144.04, 5.1696e-003
559.568,144.213, 5.1749e-003
560.062,144.387, 5.1800e-003
560.551,144.56, 5.1850e-003
561.042,144.733, 5.1916e-003
561.529,144.907, 5.1968e-003
562.025,145.08, 5.2015e-003
562.517,145.253, 5.2062e-003
563.013,145.427, 5.2111e-003
563.509,145.6, 5.2157e-003
564.003,145.773, 5.2200e-003
564.5,145.947, 5.2247e-003
565.002,146.12, 5.2295e-003
565.509,146.293, 5.2339e-003
566.01,146.467, 5.2384e-003
566.518,146.64, 5.2434e-003
567.024,146.813, 5.2477e-003
567.545,146.987, 5.2535e-003
568.063,147.16, 5.2581e-003
568.59,147.333, 5.2629e-003
569.111,147.507, 5.2666e-003
569.633,147.68, 5.2711e-003
570.161,147.853, 5.2760e-003
570.686,148.027, 5.2809e-003
571.201,148.2, 5.2855e-003
571.727,148.373, 5.2904e-003
572.256,148.547, 5.2954e-003
572.782,148.72, 5.3001e-003
573.312,148.893, 5.3048e-003
573.83,149.067, 5.3097e-003
574.349,149.24, 5.3146e-003
574.866,149.413, 5.3194e-003
575.379,149.587, 5.3242e-003
575.893,149.76, 5.3287e-003
576.405,149.933, 5.3338e-003
576.924,150.107, 5.3387e-003
577.435,150.28, 5.3439e-003
577.943,150.453, 5.3485e-003
578.46,150.627, 5.3526e-003
578.977,150.8, 5.3573e-003
579.492,150.973, 5.3622e-003
579.998,151.147, 5.3670e-003
580.512,151.32, 5.3718e-003
581.02,151.493, 5.3767e-003
581.53,151.667, 5.3814e-003
582.036,151.84, 5.3864e-003
582.541,152.013, 5.3910e-003
583.057,152.187, 5.3960e-003
583.561,152.36, 5.4008e-003
584.062,152.533, 5.4061e-003
584.57,152.707, 5.4105e-003
585.073,152.88, 5.4154e-003
585.582,153.053, 5.4215e-003
586.089,153.227, 5.4260e-003
586.586,153.4, 5.4306e-003
587.086,153.573, 5.4351e-003
587.582,153.747, 5.4398e-003
588.084,153.92, 5.4445e-003
588.581,154.093, 5.4504e-003
589.074,154.267, 5.4551e-003
589.579,154.44, 5.4602e-003
590.072,154.613, 5.4647e-003
590.572,154.787, 5.4695e-003
591.066,154.96, 5.4732e-003
591.567,155.133, 5.4778e-003
592.063,155.307, 5.4826e-003
592.564,155.48, 5.4875e-003
593.061,155.653, 5.4923e-003
593.561,155.827, 5.4968e-003
594.048,156, 5.5016e-003
594.548,156.173, 5.5068e-003
595.045,156.347, 5.5112e-003
595.538,156.52, 5.5158e-003
596.034,156.693, 5.5205e-003
596.527,156.867, 5.5253e-003
597.021,157.04, 5.5308e-003
597.518,157.213, 5.5351e-003
598.011,157.387, 5.5399e-003
598.507,157.56, 5.5445e-003
599.005,157.733, 5.5492e-003
599.501,157.907, 5.5541e-003
599.986,158.08, 5.5591e-003
600.487,158.253, 5.5641e-003
600.98,158.427, 5.5687e-003
601.473,158.6, 5.5725e-003
601.964,158.773, 5.5772e-003
602.457,158.947, 5.5822e-003
602.948,159.12, 5.5870e-003
603.437,159.293, 5.5918e-003
603.927,159.467, 5.5967e-003
604.42,159.64, 5.6018e-003
604.909,159.813, 5.6064e-003
605.4,159.987, 5.6110e-003
605.885,160.16, 5.6159e-003
606.378,160.333, 5.6208e-003
606.869,160.507, 5.6255e-003
607.36,160.68, 5.6306e-003
607.846,160.853, 5.6354e-003
608.333,161.027, 5.6406e-003
608.826,161.2, 5.6453e-003
609.315,161.373, 5.6497e-003
609.804,161.547, 5.6543e-003
610.289,161.72, 5.6594e-003
610.775,161.893, 5.6640e-003
611.261,162.067, 5.6689e-003
611.751,162.24, 5.6736e-003
612.242,162.413, 5.6786e-003
612.728,162.587, 5.6835e-003
613.216,162.76, 5.6882e-003
613.707,162.933, 5.6930e-003
614.196,163.107, 5.6966e-003
614.685,163.28, 5.7014e-003
615.173,163.453, 5.7062e-003
615.659,163.627, 5.7113e-003
616.145,163.8, 5.7164e-003
616.638,163.973, 5.7210e-003
617.123,164.147, 5.7257e-003
617.606,164.32, 5.7308e-003
618.096,164.493, 5.7356e-003
618.583,164.667, 5.7406e-003
619.068,164.84, 5.7454e-003
619.544,165.013, 5.7502e-003
620.031,165.187, 5.7548e-003
620.524,165.36, 5.7599e-003
621.015,165.533, 5.7645e-003
621.498,165.707, 5.7693e-003
621.985,165.88, 5.7742e-003
622.47,166.053, 5.7789e-003
622.957,166.227, 5.7842e-003
623.436,166.4, 5.7889e-003
623.917,166.573, 5.7936e-003
624.404,166.747, 5.7985e-003
624.889,166.92, 5.8034e-003
625.371,167.093, 5.8083e-003
625.857,167.267, 5.8132e-003
626.339,167.44, 5.8182e-003
626.819,167.613, 5.8230e-003
627.306,167.787, 5.8275e-003
627.79,167.96, 5.8325e-003
628.273,168.133, 5.8372e-003
628.76,168.307, 5.8419e-003
629.24,168.48, 5.8467e-003
629.72,168.653, 5.8517e-003
630.208,168.827, 5.8565e-003
630.692,169, 5.8613e-003
631.171,169.173, 5.8659e-003
631.655,169.347, 5.8697e-003
632.139,169.52, 5.8744e-003
632.62,169.693, 5.8790e-003
633.104,169.867, 5.8841e-003
633.593,170.04, 5.8887e-003
634.077,170.213, 5.8940e-003
634.559,170.387, 5.8988e-003
635.046,170.56, 5.9036e-003
635.53,170.733, 5.9088e-003
636.011,170.907, 5.9136e-003
636.496,171.08, 5.9183e-003
636.984,171.253, 5.9231e-003
637.467,171.427, 5.9280e-003
637.946,171.6, 5.9331e-003
638.433,171.773, 5.9379e-003
638.919,171.947, 5.9431e-003
639.406,172.12, 5.9480e-003
639.884,172.293, 5.9528e-003
640.369,172.467, 5.9577e-003
640.848,172.64, 5.9626e-003
641.332,172.813, 5.9674e-003
641.808,172.987, 5.9725e-003
642.281,173.16, 5.9774e-003
642.766,173.333, 5.9828e-003
643.242,173.507, 5.9876e-003
643.718,173.68, 5.9927e-003
644.191,173.853, 5.9978e-003
644.662,174.027, 6.0029e-003
645.129,174.2, 6.0082e-003
645.602,174.373, 6.0134e-003
646.073,174.547, 6.0182e-003
646.544,174.72, 6.0233e-003
647.014,174.893, 6.0282e-003
647.478,175.067, 6.0331e-003
647.942,175.24, 6.0384e-003
648.409,175.413, 6.0428e-003
648.871,175.587, 6.0477e-003
649.339,175.76, 6.0526e-003
649.806,175.933, 6.0575e-003
650.28,176.107, 6.0624e-003
650.756,176.28, 6.0674e-003
651.23,176.453, 6.0717e-003
651.705,176.627, 6.0748e-003
652.185,176.8, 6.0795e-003
652.671,176.973, 6.0837e-003
653.155,177.147, 6.0886e-003
653.643,177.32, 6.0931e-003
654.132,177.493, 6.0981e-003
654.62,177.667, 6.1026e-003
655.109,177.84, 6.1074e-003
655.598,178.013, 6.1125e-003
656.086,178.187, 6.1173e-003
656.579,178.36, 6.1219e-003
657.075,178.533, 6.1266e-003
657.563,178.707, 6.1313e-003
658.047,178.88, 6.1363e-003
658.544,179.053, 6.1413e-003
659.036,179.227, 6.1463e-003
659.526,179.4, 6.1511e-003
660.024,179.573, 6.1559e-003
660.511,179.747, 6.1606e-003
661.002,179.92, 6.1655e-003
661.479,180.093, 6.1701e-003
661.967,180.267, 6.1749e-003
662.443,180.44, 6.1797e-003
662.936,180.613, 6.1846e-003
663.413,180.787, 6.1896e-003
663.896,180.96, 6.1948e-003
664.376,181.133, 6.1998e-003
664.857,181.307, 6.2044e-003
665.333,181.48, 6.2091e-003
665.814,181.653, 6.2136e-003
666.294,181.827, 6.2184e-003
666.775,182, 6.2232e-003
667.255,182.173, 6.2282e-003
667.729,182.347, 6.2327e-003
668.21,182.52, 6.2371e-003
668.687,182.693, 6.2420e-003
669.164,182.867, 6.2466e-003
669.642,183.04, 6.2513e-003
670.123,183.213, 6.2563e-003
670.603,183.387, 6.2609e-003
671.075,183.56, 6.2660e-003
671.547,183.733, 6.2706e-003
672.019,183.907, 6.2752e-003
672.496,184.08, 6.2799e-003
672.974,184.253, 6.2844e-003
673.443,184.427, 6.2890e-003
673.91,184.6, 6.2934e-003
674.379,184.773, 6.2981e-003
674.851,184.947, 6.3030e-003
675.321,185.12, 6.3074e-003
675.785,185.293, 6.3121e-003
676.259,185.467, 6.3166e-003
676.727,185.64, 6.3216e-003
677.199,185.813, 6.3260e-003
677.671,185.987, 6.3287e-003
678.138,186.16, 6.3335e-003
678.612,186.333, 6.3381e-003
679.081,186.507, 6.3429e-003
679.543,186.68, 6.3472e-003
680.02,186.853, 6.3520e-003
680.486,187.027, 6.3568e-003
680.951,187.2, 6.3618e-003
681.419,187.373, 6.3662e-003
681.889,187.547, 6.3738e-003
682.35,187.72, 6.3778e-003
682.813,187.893, 6.3819e-003
683.286,188.067, 6.3871e-003
683.75,188.24, 6.3917e-003
684.211,188.413, 6.3962e-003
684.68,188.587, 6.4007e-003
685.15,188.76, 6.4056e-003
685.612,188.933, 6.4101e-003
686.079,189.107, 6.4147e-003
686.541,189.28, 6.4195e-003
687.009,189.453, 6.4241e-003
687.469,189.627, 6.4282e-003
687.934,189.8, 6.4331e-003
688.398,189.973, 6.4380e-003
688.858,190.147, 6.4426e-003
689.325,190.32, 6.4474e-003
689.793,190.493, 6.4521e-003
690.256,190.667, 6.4565e-003
690.715,190.84, 6.4611e-003
691.176,191.013, 6.4659e-003
691.632,191.187, 6.4703e-003
692.091,191.36, 6.4751e-003
692.564,191.533, 6.4798e-003
693.006,191.707, 6.4846e-003
693.461,191.88, 6.4892e-003
693.916,192.053, 6.4934e-003
694.37,192.227, 6.4982e-003
694.824,192.4, 6.5038e-003
695.274,192.573, 6.5083e-003
695.732,192.747, 6.5132e-003
696.182,192.92, 6.5178e-003
696.64,193.093, 6.5227e-003
697.094,193.267, 6.5267e-003
697.546,193.44, 6.5311e-003
698.003,193.613, 6.5356e-003
698.448,193.787, 6.5400e-003
698.905,193.96, 6.5445e-003
699.365,194.133, 6.5476e-003
699.821,194.307, 6.5517e-003
700.281,194.48, 6.5565e-003
700.738,194.653, 6.5607e-003
701.194,194.827, 6.5652e-003
701.649,195, 6.5701e-003
702.109,195.173, 6.5745e-003
702.566,195.347, 6.5801e-003
703.025,195.52, 6.5851e-003
703.484,195.693, 6.5902e-003
703.955,195.867, 6.5948e-003
704.41,196.04, 6.5993e-003
704.863,196.213, 6.6046e-003
705.308,196.387, 6.6091e-003
705.771,196.56, 6.6135e-003
706.221,196.733, 6.6180e-003
706.667,196.907, 6.6225e-003
707.118,197.08, 6.6271e-003
707.584,197.253, 6.6318e-003
708.041,197.427, 6.6361e-003
708.491,197.6, 6.6403e-003
708.946,197.773, 6.6449e-003
709.398,197.947, 6.6496e-003
709.852,198.12, 6.6540e-003
710.304,198.293, 6.6583e-003
710.762,198.467, 6.6638e-003
711.217,198.64, 6.6668e-003
711.678,198.813, 6.6721e-003
712.136,198.987, 6.6763e-003
712.597,199.16, 6.6806e-003
713.044,199.333, 6.6851e-003
713.5,199.507, 6.6896e-003
713.961,199.68, 6.6942e-003
714.414,199.853, 6.6985e-003
714.87,200.027, 6.7032e-003
715.324,200.2, 6.7075e-003
715.786,200.373, 6.7121e-003
716.248,200.547, 6.7167e-003
716.7,200.72, 6.7212e-003
717.155,200.893, 6.7256e-003
717.609,201.067, 6.7302e-003
718.065,201.24, 6.7343e-003
718.517,201.413, 6.7390e-003
718.971,201.587, 6.7436e-003
719.416,201.76, 6.7479e-003
719.864,201.933, 6.7529e-003
720.307,202.107, 6.7575e-003
720.757,202.28, 6.7621e-003
721.206,202.453, 6.7670e-003
721.647,202.627, 6.7715e-003
722.089,202.8, 6.7760e-003
722.535,202.973, 6.7804e-003
722.976,203.147, 6.7853e-003
723.411,203.32, 6.7903e-003
723.849,203.493, 6.7946e-003
724.29,203.667, 6.7991e-003
724.73,203.84, 6.8039e-003
725.169,204.013, 6.8086e-003
725.612,204.187, 6.8126e-003
726.058,204.36, 6.8171e-003
726.508,204.533, 6.8212e-003
726.953,204.707, 6.8252e-003
727.408,204.88, 6.8296e-003
727.861,205.053, 6.8336e-003
728.318,205.227, 6.8377e-003
728.781,205.4, 6.8422e-003
729.249,205.573, 6.8467e-003
729.71,205.747, 6.8510e-003
730.178,205.92, 6.8539e-003
730.647,206.093, 6.8582e-003
731.115,206.267, 6.8627e-003
731.581,206.44, 6.8670e-003
732.048,206.613, 6.8716e-003
732.517,206.787, 6.8760e-003
732.981,206.96, 6.8803e-003
733.445,207.133, 6.8849e-003
733.912,207.307, 6.8895e-003
734.379,207.48, 6.8938e-003
734.837,207.653, 6.8983e-003
735.305,207.827, 6.9028e-003
735.773,208, 6.9087e-003
736.231,208.173, 6.9131e-003
736.693,208.347, 6.9179e-003
737.159,208.52, 6.9223e-003
737.624,208.693, 6.9265e-003
738.091,208.867, 6.9312e-003
738.55,209.04, 6.9353e-003
739.009,209.213, 6.9394e-003
739.474,209.387, 6.9442e-003
739.939,209.56, 6.9487e-003
740.397,209.733, 6.9531e-003
740.863,209.907, 6.9579e-003
741.325,210.08, 6.9621e-003
741.788,210.253, 6.9667e-003
742.246,210.427, 6.9713e-003
742.701,210.6, 6.9755e-003
743.157,210.773, 6.9800e-003
743.611,210.947, 6.9844e-003
744.066,211.12, 6.9888e-003
744.522,211.293, 6.9931e-003
744.994,211.467, 6.9957e-003
745.447,211.64, 7.0008e-003
745.896,211.813, 7.0064e-003
746.363,211.987, 7.0112e-003
746.813,212.16, 7.0161e-003
747.268,212.333, 7.0204e-003
747.725,212.507, 7.0247e-003
748.186,212.68, 7.0291e-003
748.636,212.853, 7.0336e-003
749.082,213.027, 7.0379e-003
749.54,213.2, 7.0422e-003
749.986,213.373, 7.0465e-003
750.441,213.547, 7.0508e-003
750.889,213.72, 7.0553e-003
751.351,213.893, 7.0604e-003
751.796,214.067, 7.0655e-003
752.255,214.24, 7.0706e-003
752.703,214.413, 7.0749e-003
753.158,214.587, 7.0790e-003
753.605,214.76, 7.0833e-003
754.061,214.933, 7.0877e-003
754.516,215.107, 7.0929e-003
754.971,215.28, 7.0975e-003
755.417,215.453, 7.1017e-003
755.868,215.627, 7.1058e-003
756.32,215.8, 7.1103e-003
756.772,215.973, 7.1148e-003
757.227,216.147, 7.1192e-003
757.675,216.32, 7.1234e-003
758.128,216.493, 7.1280e-003
758.575,216.667, 7.1322e-003
759.027,216.84, 7.1366e-003
759.478,217.013, 7.1396e-003
759.926,217.187, 7.1442e-003
760.374,217.36, 7.1485e-003
760.822,217.533, 7.1530e-003
761.268,217.707, 7.1573e-003
761.72,217.88, 7.1619e-003
762.162,218.053, 7.1660e-003
762.608,218.227, 7.1751e-003
763.059,218.4, 7.1764e-003
763.501,218.573, 7.1802e-003
763.95,218.747, 7.1844e-003
764.393,218.92, 7.1887e-003
764.838,219.093, 7.1929e-003
765.281,219.267, 7.1977e-003
765.728,219.44, 7.2018e-003
766.182,219.613, 7.2062e-003
766.622,219.787, 7.2101e-003
767.072,219.96, 7.2146e-003
767.514,220.133, 7.2190e-003
767.965,220.307, 7.2233e-003
768.413,220.48, 7.2277e-003
768.86,220.653, 7.2340e-003
769.308,220.827, 7.2383e-003
769.754,221, 7.2426e-003
770.205,221.173, 7.2472e-003
770.652,221.347, 7.2522e-003
771.1,221.52, 7.2566e-003
771.543,221.693, 7.2611e-003
771.989,221.867, 7.2655e-003
772.435,222.04, 7.2701e-003
772.881,222.213, 7.2744e-003
773.326,222.387, 7.2789e-003
773.769,222.56, 7.2831e-003
774.222,222.733, 7.2874e-003
774.67,222.907, 7.2939e-003
775.121,223.08, 7.2985e-003
775.558,223.253, 7.3030e-003
776.005,223.427, 7.3076e-003
776.452,223.6, 7.3134e-003
776.903,223.773, 7.3178e-003
777.343,223.947, 7.3223e-003
777.786,224.12, 7.3268e-003
778.228,224.293, 7.3318e-003
778.674,224.467, 7.3370e-003
779.11,224.64, 7.3415e-003
779.556,224.813, 7.3491e-003
780.003,224.987, 7.3550e-003
780.444,225.16, 7.3595e-003
780.893,225.333, 7.3599e-003
781.339,225.507, 7.3641e-003
781.784,225.68, 7.3687e-003
782.235,225.853, 7.3731e-003
782.683,226.027, 7.3773e-003
783.127,226.2, 7.3818e-003
783.574,226.373, 7.3861e-003
784.015,226.547, 7.3906e-003
784.451,226.72, 7.3951e-003
784.888,226.893, 7.3998e-003
785.327,227.067, 7.4042e-003
785.759,227.24, 7.4087e-003
786.196,227.413, 7.4136e-003
786.62,227.587, 7.4179e-003
787.052,227.76, 7.4228e-003
787.482,227.933, 7.4277e-003
787.904,228.107, 7.4325e-003
788.33,228.28, 7.4375e-003
788.746,228.453, 7.4436e-003
789.167,228.627, 7.4546e-003
789.59,228.8, 7.4595e-003
790.003,228.973, 7.4647e-003
790.414,229.147, 7.4691e-003
790.818,229.32, 7.4740e-003
791.23,229.493, 7.4786e-003
791.632,229.667, 7.4831e-003
792.036,229.84, 7.4875e-003
792.446,230.013, 7.4921e-003
792.861,230.187, 7.4968e-003
793.276,230.36, 7.5010e-003
793.711,230.533, 7.5063e-003
794.146,230.707, 7.5107e-003
794.576,230.88, 7.5148e-003
795.016,231.053, 7.5194e-003
795.455,231.227, 7.5233e-003
795.889,231.4, 7.5277e-003
796.333,231.573, 7.5324e-003
796.773,231.747, 7.5388e-003
797.22,231.92, 7.5447e-003
797.656,232.093, 7.5486e-003
798.104,232.267, 7.5520e-003
798.552,232.44, 7.5557e-003
798.999,232.613, 7.5599e-003
799.443,232.787, 7.5636e-003
799.893,232.96, 7.5681e-003
800.341,233.133, 7.5721e-003
800.783,233.307, 7.5762e-003
801.228,233.48, 7.5806e-003
801.667,233.653, 7.5853e-003
802.116,233.827, 7.5898e-003
802.56,234, 7.5946e-003
802.994,234.173, 7.5994e-003
803.436,234.347, 7.6038e-003
803.874,234.52, 7.6087e-003
804.311,234.693, 7.6135e-003
804.751,234.867, 7.6181e-003
805.187,235.04, 7.6222e-003
805.63,235.213, 7.6266e-003
806.071,235.387, 7.6312e-003
806.514,235.56, 7.6358e-003
806.953,235.733, 7.6401e-003
807.388,235.907, 7.6465e-003
807.822,236.08, 7.6499e-003
808.257,236.253, 7.6553e-003
808.691,236.427, 7.6595e-003
809.121,236.6, 7.6644e-003
809.566,236.773, 7.6691e-003
810.002,236.947, 7.6738e-003
810.445,237.12, 7.6786e-003
810.872,237.293, 7.6831e-003
811.306,237.467, 7.6885e-003
811.734,237.64, 7.6934e-003
812.163,237.813, 7.6977e-003
812.586,237.987, 7.7018e-003
813.01,238.16, 7.7058e-003
813.443,238.333, 7.7101e-003
813.862,238.507, 7.7146e-003
814.289,238.68, 7.7185e-003
814.709,238.853, 7.7225e-003
815.137,239.027, 7.7263e-003
815.553,239.2, 7.7301e-003
815.979,239.373, 7.7339e-003
816.402,239.547, 7.7381e-003
816.821,239.72, 7.7418e-003
817.246,239.893, 7.7455e-003
817.666,240.067, 7.7492e-003
818.089,240.24, 7.7531e-003
818.515,240.413, 7.7569e-003
818.93,240.587, 7.7624e-003
819.351,240.76, 7.7667e-003
819.78,240.933, 7.7709e-003
820.208,241.107, 7.7751e-003
820.636,241.28, 7.7794e-003
821.063,241.453, 7.7835e-003
821.492,241.627, 7.7879e-003
821.916,241.8, 7.7932e-003
822.345,241.973, 7.7990e-003
822.776,242.147, 7.8035e-003
823.199,242.32, 7.8080e-003
823.633,242.493, 7.8129e-003
824.075,242.667, 7.8173e-003
824.507,242.84, 7.8220e-003
824.949,243.013, 7.8258e-003
825.392,243.187, 7.8307e-003
825.84,243.36, 7.8355e-003
826.284,243.533, 7.8402e-003
826.736,243.707, 7.8451e-003
827.19,243.88, 7.8520e-003
827.643,244.053, 7.8567e-003
828.088,244.227, 7.8635e-003
828.537,244.4, 7.8682e-003
828.985,244.573, 7.8729e-003
829.433,244.747, 7.8776e-003
829.878,244.92, 7.8806e-003
830.323,245.093, 7.8853e-003
830.76,245.267, 7.8897e-003
831.205,245.44, 7.8944e-003
831.648,245.613, 7.8987e-003
832.083,245.787, 7.9028e-003
832.522,245.96, 7.9076e-003
832.957,246.133, 7.9134e-003
833.397,246.307, 7.9185e-003
833.835,246.48, 7.9223e-003
834.271,246.653, 7.9267e-003
834.709,246.827, 7.9312e-003
835.157,247, 7.9359e-003
835.587,247.173, 7.9401e-003
836.034,247.347, 7.9424e-003
836.476,247.52, 7.9463e-003
836.92,247.693, 7.9515e-003
837.362,247.867, 7.9564e-003
837.803,248.04, 7.9606e-003
838.246,248.213, 7.9650e-003
838.686,248.387, 7.9701e-003
839.13,248.56, 7.9744e-003
839.573,248.733, 7.9803e-003
840.017,248.907, 8.0005e-003
840.46,249.08, 8.0062e-003
840.907,249.253, 8.0114e-003
841.355,249.427, 8.0172e-003
841.799,249.6, 8.0223e-003
842.241,249.773, 8.0271e-003
842.688,249.947, 8.0320e-003
843.142,250.12, 8.0371e-003
843.587,250.293, 8.0421e-003
844.035,250.467, 8.0471e-003
844.479,250.64, 8.0518e-003
844.925,250.813, 8.0568e-003
845.366,250.987, 8.0618e-003
845.817,251.16, 8.0664e-003
846.261,251.333, 8.0718e-003
846.711,251.507, 8.0769e-003
847.156,251.68, 8.0816e-003
847.593,251.853, 8.0868e-003
848.033,252.027, 8.0920e-003
848.468,252.2, 8.0968e-003
848.909,252.373, 8.1016e-003
849.344,252.547, 8.1067e-003
849.784,252.72, 8.1116e-003
850.226,252.893, 8.1164e-003
850.334,252.937, 8.1176e-003