File: data/8.1mm/albAmel001r2-9.6mm.csv
#EXPORTTYPE:           ,DATA ALL
#FILE:                 ,albAmel100rn2.ngb-cle
#FORMAT:               ,NETZSCH5
#FTYPE:                ,ANSI
#IDENTITY:             ,alb 100
#DECIMAL:              ,POINT
#SEPARATOR:            ,COMMA
#MTYPE:                ,DIL
#INSTRUMENT:           ,NETZSCH DIL 402C
#PROJECT:              ,feldspar
#DATE/TIME:            ,8/14/2019 2:29:22 PM (UTC-5)
#CORR. FILE:           ,
#TEMPCAL:              ,TCALZERO.TMX
#LABORATORY:           ,Mineral Physics
#OPERATOR:             ,PAG
#REMARK:               ,bare amel flat 2nd run
#SAMPLE:               ,albame100run2
#SAMPLE LENGTH /mm:    ,9.6
#MATERIAL:             ,sapphire stnd
#MEASMODE:             ,Standard Expansion
#PURGE GAS 1:          ,ARGON
#FLOW RATE 1 /(ml/min):,75
#M.RANGE /µm:          ,500
#CORR. CODE:           ,010
#RANGE:                ,20.0°C/3.0(K/min)/600.0°C
#SEGMENT:              ,S1/1
#SEG. 1:               ,20.0°C/3.0(K/min)/600.0°C

##Temp./°C,Time/min,dL/Lo
 22.92400,  0.00000, 2.5149e-005
 22.92700,  0.10833, 2.6381e-005
 22.92200,  0.21667, 2.7179e-005
 22.91600,  0.32500, 2.7370e-005
 22.91000,  0.43333, 2.8252e-005
 22.89200,  0.54167, 2.8110e-005
 22.87600,  0.65000, 2.7892e-005
 22.86600,  0.75833, 2.8198e-005
 22.85200,  0.86667, 2.7772e-005
 22.85100,  0.97500, 2.7635e-005
 22.83400,  1.08333, 2.7253e-005
 22.83000,  1.19167, 2.7211e-005
 22.81700,  1.30000, 2.6598e-005
 22.80800,  1.40833, 2.6403e-005
 22.79900,  1.51667, 2.5349e-005
 22.77200,  1.62500, 2.4844e-005
 22.76600,  1.73333, 2.4045e-005
 22.75400,  1.84167, 2.3530e-005
 22.75000,  1.95000, 2.3566e-005
 22.74700,  2.05833, 2.2438e-005
 22.73200,  2.16667, 2.1849e-005
 22.72700,  2.27500, 2.1071e-005
 22.71300,  2.38333, 2.0450e-005
 22.70400,  2.49167, 1.9826e-005
 22.69700,  2.60000, 1.9490e-005
 22.68200,  2.70833, 1.8237e-005
 22.68100,  2.81667, 1.7930e-005
 22.66800,  2.92500, 1.7095e-005
 22.66800,  3.03333, 1.6340e-005
 22.65900,  3.14167, 1.5794e-005
 22.64700,  3.25000, 1.4835e-005
 22.63800,  3.35833, 1.4198e-005
 22.64900,  3.46667, 1.3665e-005
 22.66200,  3.57500, 1.2742e-005
 22.67500,  3.68333, 1.1312e-005
 22.70400,  3.79167, 1.0451e-005
 22.74400,  3.90000, 8.7840e-006
 22.80100,  4.00833, 7.2774e-006
 22.86500,  4.11667, 5.2219e-006
 22.94500,  4.22500, 3.5152e-006
 23.05300,  4.33333, 8.6283e-007
 23.17300,  4.44167,-1.6255e-006
 23.31800,  4.55000,-4.4298e-006
 23.49100,  4.65833,-7.2161e-006
 23.69000,  4.76667,-1.0025e-005
 23.90000,  4.87500,-1.3236e-005
 24.14200,  4.98333,-1.6349e-005
 24.39400,  5.09167,-2.0053e-005
 24.66200,  5.20000,-2.3227e-005
 24.96800,  5.30833,-2.6661e-005
 25.29600,  5.41667,-3.0472e-005
 25.63400,  5.52500,-3.4054e-005
 25.99400,  5.63333,-3.7752e-005
 26.38600,  5.74167,-4.0725e-005
 26.79100,  5.85000,-4.4308e-005
 27.20800,  5.95833,-4.8532e-005
 27.63400,  6.06667,-5.1572e-005
 28.08800,  6.17500,-5.4684e-005
 28.54800,  6.28333,-5.8025e-005
 29.02400,  6.39167,-6.0326e-005
 29.50600,  6.50000,-6.2296e-005
 30.00700,  6.60833,-6.3804e-005
 30.51200,  6.71667,-6.5295e-005
 31.03100,  6.82500,-6.6867e-005
 31.53900,  6.93333,-6.7527e-005
 32.07000,  7.04167,-6.8985e-005
 32.59600,  7.15000,-6.8902e-005
 33.13400,  7.25833,-6.9018e-005
 33.65900,  7.36667,-6.8641e-005
 34.19800,  7.47500,-6.8371e-005
 34.73400,  7.58333,-6.7209e-005
 35.28600,  7.69167,-6.6193e-005
 35.81400,  7.80000,-6.5751e-005
 36.36200,  7.90833,-6.4188e-005
 36.89400,  8.01667,-6.2466e-005
 37.44000,  8.12500,-6.0070e-005
 37.97800,  8.23333,-5.7848e-005
 38.52000,  8.34167,-5.5596e-005
 39.05500,  8.45000,-5.2651e-005
 39.59000,  8.55833,-4.9771e-005
 40.13400,  8.66667,-4.6773e-005
 40.67100,  8.77500,-4.3813e-005
 41.20600,  8.88333,-4.0540e-005
 41.73400,  8.99167,-3.7200e-005
 42.27700,  9.10000,-3.4103e-005
 42.81200,  9.20833,-3.0425e-005
 43.36000,  9.31667,-2.6157e-005
 43.89900,  9.42500,-2.2866e-005
 44.44300,  9.53333,-1.9030e-005
 44.99100,  9.64167,-1.4631e-005
 45.53400,  9.75000,-1.1127e-005
 46.09300,  9.85833,-6.8825e-006
 46.62700,  9.96667,-2.4531e-006
 47.18100, 10.07500, 1.4962e-006
 47.73000, 10.18333, 5.8263e-006
 48.27800, 10.29167, 9.8631e-006
 48.83500, 10.40000, 1.4317e-005
 49.39200, 10.50833, 1.8940e-005
 49.95800, 10.61667, 2.2913e-005
 50.50900, 10.72500, 2.7845e-005
 51.08300, 10.83333, 3.2292e-005
 51.64600, 10.94167, 3.7285e-005
 52.21600, 11.05000, 4.1600e-005
 52.78200, 11.15833, 4.6537e-005
 53.36300, 11.26667, 5.1818e-005
 53.92800, 11.37500, 5.6853e-005
 54.51300, 11.48333, 6.1681e-005
 55.09100, 11.59167, 6.6993e-005
 55.66200, 11.70000, 7.2098e-005
 56.25200, 11.80833, 7.7341e-005
 56.82900, 11.91667, 8.2621e-005
 57.41200, 12.02500, 8.8061e-005
 57.99000, 12.13333, 9.3661e-005
 58.57900, 12.24167, 9.9068e-005
 59.15400, 12.35000, 1.0461e-004
 59.74500, 12.45833, 1.1017e-004
 60.32400, 12.56667, 1.1596e-004
 60.91300, 12.67500, 1.2214e-004
 61.48400, 12.78333, 1.2742e-004
 62.07500, 12.89167, 1.3354e-004
 62.66000, 13.00000, 1.3980e-004
 63.25100, 13.10833, 1.4617e-004
 63.83300, 13.21667, 1.5238e-004
 64.42400, 13.32500, 1.5862e-004
 65.01200, 13.43333, 1.6536e-004
 65.59000, 13.54167, 1.7134e-004
 66.17700, 13.65000, 1.7826e-004
 66.75800, 13.75833, 1.8461e-004
 67.34500, 13.86667, 1.9144e-004
 67.93000, 13.97500, 1.9828e-004
 68.51700, 14.08333, 2.0473e-004
 69.10400, 14.19167, 2.1180e-004
 69.68500, 14.30000, 2.1859e-004
 70.26000, 14.40833, 2.2553e-004
 70.84500, 14.51667, 2.3274e-004
 71.42200, 14.62500, 2.3952e-004
 72.00500, 14.73333, 2.4690e-004
 72.58000, 14.84167, 2.5391e-004
 73.15500, 14.95000, 2.6096e-004
 73.74100, 15.05833, 2.6822e-004
 74.31900, 15.16667, 2.7516e-004
 74.88300, 15.27500, 2.8238e-004
 75.46800, 15.38333, 2.8932e-004
 76.04500, 15.49167, 2.9728e-004
 76.61400, 15.60000, 3.0445e-004
 77.19000, 15.70833, 3.1161e-004
 77.76000, 15.81667, 3.1926e-004
 78.34700, 15.92500, 3.2623e-004
 78.91200, 16.03333, 3.3337e-004
 79.48700, 16.14167, 3.4061e-004
 80.05900, 16.25000, 3.4871e-004
 80.62500, 16.35833, 3.5589e-004
 81.20000, 16.46667, 3.6330e-004
 81.77200, 16.57500, 3.7063e-004
 82.33800, 16.68333, 3.7807e-004
 82.90600, 16.79167, 3.8577e-004
 83.47100, 16.90000, 3.9279e-004
 84.04200, 17.00833, 4.0029e-004
 84.61100, 17.11667, 4.0825e-004
 85.17500, 17.22500, 4.1559e-004
 85.74300, 17.33333, 4.2326e-004
 86.28700, 17.44167, 4.3087e-004
 86.86200, 17.55000, 4.3885e-004
 87.42800, 17.65833, 4.4615e-004
 87.99300, 17.76667, 4.5355e-004
 88.55000, 17.87500, 4.6135e-004
 89.10500, 17.98333, 4.6907e-004
 89.67600, 18.09167, 4.7674e-004
 90.23200, 18.20000, 4.9004e-004
 90.80100, 18.30833, 4.9853e-004
 91.36100, 18.41667, 5.0670e-004
 91.90900, 18.52500, 5.1496e-004
 92.47900, 18.63333, 5.2453e-004
 93.03400, 18.74167, 5.3181e-004
 93.58400, 18.85000, 5.3953e-004
 94.14200, 18.95833, 5.4857e-004
 94.68600, 19.06667, 5.5699e-004
 95.24900, 19.17500, 5.6461e-004
 95.80200, 19.28333, 5.7245e-004
 96.35000, 19.39167, 5.8230e-004
 96.90800, 19.50000, 5.9016e-004
 97.45800, 19.60833, 5.9812e-004
 98.01200, 19.71667, 6.0608e-004
 98.56000, 19.82500, 6.1522e-004
 99.11100, 19.93333, 6.2348e-004
 99.65700, 20.04167, 6.3163e-004
100.21, 20.15000, 6.3972e-004
100.76, 20.25833, 6.4756e-004
101.301, 20.36667, 6.5594e-004
101.848, 20.47500, 6.6477e-004
102.392, 20.58333, 6.7459e-004
102.934, 20.69167, 6.8235e-004
103.483, 20.80000, 6.8989e-004
103.947, 20.90833, 6.9637e-004
104.489, 21.01667, 7.0407e-004
105.031, 21.12500, 7.1464e-004
105.567, 21.23333, 7.2261e-004
106.11, 21.34167, 7.3035e-004
106.636, 21.45000, 7.3946e-004
107.185, 21.55833, 7.4708e-004
107.713, 21.66667, 7.5509e-004
108.261, 21.77500, 7.6307e-004
108.799, 21.88333, 7.7131e-004
109.335, 21.99167, 7.7995e-004
109.873, 22.10000, 7.8795e-004
110.405, 22.20833, 7.9607e-004
110.936, 22.31667, 8.0423e-004
111.492, 22.42500, 8.1237e-004
112.023, 22.53333, 8.2146e-004
112.558, 22.64167, 8.2966e-004
113.096, 22.75000, 8.3753e-004
113.625, 22.85833, 8.4628e-004
114.155, 22.96667, 8.5430e-004
114.697, 23.07500, 8.6392e-004
115.23, 23.18333, 8.7207e-004
115.76, 23.29167, 8.7996e-004
116.3, 23.40000, 8.8941e-004
116.821, 23.50833, 8.9716e-004
117.354, 23.61667, 9.0480e-004
117.887, 23.72500, 9.1395e-004
118.409, 23.83333, 9.2242e-004
118.94, 23.94167, 9.3128e-004
119.464, 24.05000, 9.3876e-004
120.008, 24.15833, 9.4683e-004
120.53, 24.26667, 9.5569e-004
121.059, 24.37500, 9.6380e-004
121.592, 24.48333, 9.7331e-004
122.119, 24.59167, 9.8139e-004
122.646, 24.70000, 9.8892e-004
123.168, 24.80833, 9.9703e-004
123.693, 24.91667, 1.0052e-003
124.218, 25.02500, 1.0132e-003
124.747, 25.13333, 1.0207e-003
125.264, 25.24167, 1.0283e-003
125.792, 25.35000, 1.0359e-003
126.316, 25.45833, 1.0449e-003
126.844, 25.56667, 1.0544e-003
127.368, 25.67500, 1.0623e-003
127.896, 25.78333, 1.0711e-003
128.414, 25.89167, 1.0788e-003
128.929, 26.00000, 1.0864e-003
129.456, 26.10833, 1.0944e-003
129.983, 26.21667, 1.1027e-003
130.497, 26.32500, 1.1105e-003
131.019, 26.43333, 1.1201e-003
131.539, 26.54167, 1.1282e-003
132.063, 26.65000, 1.1369e-003
132.58, 26.75833, 1.1446e-003
133.105, 26.86667, 1.1531e-003
133.621, 26.97500, 1.1605e-003
134.143, 27.08333, 1.1702e-003
134.66, 27.19167, 1.1780e-003
135.172, 27.30000, 1.1855e-003
135.691, 27.40833, 1.1932e-003
136.21, 27.51667, 1.2008e-003
136.729, 27.62500, 1.2085e-003
137.246, 27.73333, 1.2159e-003
137.779, 27.84167, 1.2258e-003
138.295, 27.95000, 1.2337e-003
138.81, 28.05833, 1.2414e-003
139.331, 28.16667, 1.2503e-003
139.861, 28.27500, 1.2581e-003
140.364, 28.38333, 1.2663e-003
140.879, 28.49167, 1.2738e-003
141.396, 28.60000, 1.2825e-003
141.923, 28.70833, 1.2910e-003
142.436, 28.81667, 1.2996e-003
142.954, 28.92500, 1.3072e-003
143.467, 29.03333, 1.3152e-003
143.987, 29.14167, 1.3226e-003
144.491, 29.25000, 1.3302e-003
145.004, 29.35833, 1.3380e-003
145.517, 29.46667, 1.3475e-003
146.032, 29.57500, 1.3552e-003
146.544, 29.68333, 1.3644e-003
147.066, 29.79167, 1.3725e-003
147.58, 29.90000, 1.3801e-003
148.091, 30.00833, 1.3878e-003
148.592, 30.11667, 1.3958e-003
149.106, 30.22500, 1.4042e-003
149.615, 30.33333, 1.4123e-003
150.125, 30.44167, 1.4221e-003
150.642, 30.55000, 1.4301e-003
151.153, 30.65833, 1.4372e-003
151.656, 30.76667, 1.4448e-003
152.167, 30.87500, 1.4523e-003
152.676, 30.98333, 1.4604e-003
153.188, 31.09167, 1.4689e-003
153.703, 31.20000, 1.4781e-003
154.206, 31.30833, 1.4859e-003
154.716, 31.41667, 1.4948e-003
155.216, 31.52500, 1.5022e-003
155.725, 31.63333, 1.5099e-003
156.238, 31.74167, 1.5174e-003
156.743, 31.85000, 1.5257e-003
157.247, 31.95833, 1.5346e-003
157.742, 32.06667, 1.5421e-003
158.252, 32.17500, 1.5494e-003
158.755, 32.28333, 1.5569e-003
159.253, 32.39167, 1.5659e-003
159.757, 32.50000, 1.5735e-003
160.259, 32.60833, 1.5807e-003
160.765, 32.71667, 1.5885e-003
161.265, 32.82500, 1.5986e-003
161.763, 32.93333, 1.6063e-003
162.279, 33.04167, 1.6141e-003
162.781, 33.15000, 1.6217e-003
163.284, 33.25833, 1.6289e-003
163.787, 33.36667, 1.6367e-003
164.291, 33.47500, 1.6455e-003
164.792, 33.58333, 1.6535e-003
165.289, 33.69167, 1.6622e-003
165.795, 33.80000, 1.6700e-003
166.29, 33.90833, 1.6774e-003
166.793, 34.01667, 1.6853e-003
167.294, 34.12500, 1.6927e-003
167.797, 34.23333, 1.7026e-003
168.294, 34.34167, 1.7099e-003
168.791, 34.45000, 1.7173e-003
169.286, 34.55833, 1.7253e-003
169.792, 34.66667, 1.7336e-003
170.282, 34.77500, 1.7418e-003
170.783, 34.88333, 1.7505e-003
171.284, 34.99167, 1.7579e-003
171.783, 35.10000, 1.7655e-003
172.276, 35.20833, 1.7736e-003
172.76, 35.31667, 1.7811e-003
173.259, 35.42500, 1.7899e-003
173.758, 35.53333, 1.7972e-003
174.25, 35.64167, 1.8044e-003
174.749, 35.75000, 1.8138e-003
175.248, 35.85833, 1.8211e-003
175.74, 35.96667, 1.8289e-003
176.233, 36.07500, 1.8361e-003
176.73, 36.18333, 1.8439e-003
177.225, 36.29167, 1.8526e-003
177.717, 36.40000, 1.8615e-003
178.213, 36.50833, 1.8683e-003
178.702, 36.61667, 1.8759e-003
179.187, 36.72500, 1.8833e-003
179.686, 36.83333, 1.8926e-003
180.181, 36.94167, 1.9013e-003
180.67, 37.05000, 1.9084e-003
181.157, 37.15833, 1.9159e-003
181.649, 37.26667, 1.9233e-003
182.133, 37.37500, 1.9307e-003
182.623, 37.48333, 1.9406e-003
183.111, 37.59167, 1.9477e-003
183.602, 37.70000, 1.9553e-003
184.098, 37.80833, 1.9637e-003
184.583, 37.91667, 1.9722e-003
185.073, 38.02500, 1.9796e-003
185.566, 38.13333, 1.9871e-003
186.05, 38.24167, 1.9945e-003
186.54, 38.35000, 2.0037e-003
187.028, 38.45833, 2.0116e-003
187.52, 38.56667, 2.0191e-003
188.012, 38.67500, 2.0271e-003
188.494, 38.78333, 2.0345e-003
188.977, 38.89167, 2.0422e-003
189.473, 39.00000, 2.0504e-003
189.959, 39.10833, 2.0588e-003
190.438, 39.21667, 2.0669e-003
190.926, 39.32500, 2.0748e-003
191.408, 39.43333, 2.0822e-003
191.896, 39.54167, 2.0912e-003
192.377, 39.65000, 2.0983e-003
192.872, 39.75833, 2.1056e-003
193.352, 39.86667, 2.1127e-003
193.834, 39.97500, 2.1200e-003
194.327, 40.08333, 2.1294e-003
194.804, 40.19167, 2.1365e-003
195.292, 40.30000, 2.1436e-003
195.775, 40.40833, 2.1518e-003
196.26, 40.51667, 2.1604e-003
196.735, 40.62500, 2.1678e-003
197.216, 40.73333, 2.1760e-003
197.698, 40.84167, 2.1842e-003
198.182, 40.95000, 2.1920e-003
198.657, 41.05833, 2.1996e-003
199.14, 41.16667, 2.2078e-003
199.622, 41.27500, 2.2158e-003
200.108, 41.38333, 2.2236e-003
200.595, 41.49167, 2.2320e-003
201.06, 41.60000, 2.2386e-003
201.541, 41.70833, 2.2465e-003
202.02, 41.81667, 2.2553e-003
202.504, 41.92500, 2.2627e-003
202.982, 42.03333, 2.2702e-003
203.459, 42.14167, 2.2778e-003
203.94, 42.25000, 2.2860e-003
204.416, 42.35833, 2.2940e-003
204.886, 42.46667, 2.3011e-003
205.364, 42.57500, 2.3093e-003
205.843, 42.68333, 2.3166e-003
206.32, 42.79167, 2.3238e-003
206.798, 42.90000, 2.3314e-003
207.269, 43.00833, 2.3398e-003
207.748, 43.11667, 2.3474e-003
208.227, 43.22500, 2.3547e-003
208.694, 43.33333, 2.3620e-003
209.172, 43.44167, 2.3698e-003
209.644, 43.55000, 2.3773e-003
210.121, 43.65833, 2.3846e-003
210.594, 43.76667, 2.3934e-003
211.068, 43.87500, 2.4004e-003
211.541, 43.98333, 2.4082e-003
212.013, 44.09167, 2.4161e-003
212.486, 44.20000, 2.4238e-003
212.96, 44.30833, 2.4313e-003
213.435, 44.41667, 2.4390e-003
213.913, 44.52500, 2.4468e-003
214.386, 44.63333, 2.4537e-003
214.859, 44.74167, 2.4622e-003
215.331, 44.85000, 2.4695e-003
215.801, 44.95833, 2.4777e-003
216.276, 45.06667, 2.4848e-003
216.745, 45.17500, 2.4915e-003
217.201, 45.28333, 2.4997e-003
217.675, 45.39167, 2.5069e-003
218.148, 45.50000, 2.5142e-003
218.617, 45.60833, 2.5230e-003
219.099, 45.71667, 2.5304e-003
219.567, 45.82500, 2.5384e-003
220.027, 45.93333, 2.5454e-003
220.496, 46.04167, 2.5523e-003
220.97, 46.15000, 2.5609e-003
221.436, 46.25833, 2.5682e-003
221.91, 46.36667, 2.5764e-003
222.374, 46.47500, 2.5849e-003
222.846, 46.58333, 2.5917e-003
223.308, 46.69167, 2.5985e-003
223.773, 46.80000, 2.6065e-003
224.247, 46.90833, 2.6144e-003
224.705, 47.01667, 2.6219e-003
225.176, 47.12500, 2.6296e-003
225.642, 47.23333, 2.6367e-003
226.108, 47.34167, 2.6439e-003
226.572, 47.45000, 2.6521e-003
227.033, 47.55833, 2.6592e-003
227.505, 47.66667, 2.6673e-003
227.967, 47.77500, 2.6746e-003
228.425, 47.88333, 2.6823e-003
228.898, 47.99167, 2.6895e-003
229.358, 48.10000, 2.6976e-003
229.823, 48.20833, 2.7050e-003
230.279, 48.31667, 2.7132e-003
230.736, 48.42500, 2.7199e-003
231.198, 48.53333, 2.7269e-003
231.652, 48.64167, 2.7354e-003
232.119, 48.75000, 2.7432e-003
232.576, 48.85833, 2.7501e-003
233.034, 48.96667, 2.7583e-003
233.501, 49.07500, 2.7661e-003
233.972, 49.18333, 2.7738e-003
234.432, 49.29167, 2.7808e-003
234.891, 49.40000, 2.7884e-003
235.354, 49.50833, 2.7963e-003
235.818, 49.61667, 2.8033e-003
236.277, 49.72500, 2.8118e-003
236.739, 49.83333, 2.8194e-003
237.193, 49.94167, 2.8273e-003
237.652, 50.05000, 2.8352e-003
238.124, 50.15833, 2.8425e-003
238.568, 50.26667, 2.8499e-003
239.036, 50.37500, 2.8569e-003
239.481, 50.48333, 2.8644e-003
239.94, 50.59167, 2.8723e-003
240.403, 50.70000, 2.8794e-003
240.851, 50.80833, 2.8867e-003
241.304, 50.91667, 2.8943e-003
241.761, 51.02500, 2.9019e-003
242.227, 51.13333, 2.9092e-003
242.677, 51.24167, 2.9163e-003
243.13, 51.35000, 2.9233e-003
243.584, 51.45833, 2.9311e-003
244.038, 51.56667, 2.9387e-003
244.495, 51.67500, 2.9455e-003
244.953, 51.78333, 2.9523e-003
245.406, 51.89167, 2.9594e-003
245.864, 52.00000, 2.9684e-003
246.32, 52.10833, 2.9753e-003
246.771, 52.21667, 2.9832e-003
247.226, 52.32500, 2.9910e-003
247.681, 52.43333, 2.9977e-003
248.13, 52.54167, 3.0044e-003
248.586, 52.65000, 3.0116e-003
249.028, 52.75833, 3.0181e-003
249.476, 52.86667, 3.0264e-003
249.925, 52.97500, 3.0341e-003
250.377, 53.08333, 3.0426e-003
250.823, 53.19167, 3.0504e-003
251.272, 53.30000, 3.0571e-003
251.724, 53.40833, 3.0645e-003
252.169, 53.51667, 3.0726e-003
252.624, 53.62500, 3.0793e-003
253.073, 53.73333, 3.0861e-003
253.522, 53.84167, 3.0927e-003
253.975, 53.95000, 3.1020e-003
254.414, 54.05833, 3.1096e-003
254.871, 54.16667, 3.1169e-003
255.319, 54.27500, 3.1237e-003
255.764, 54.38333, 3.1309e-003
256.215, 54.49167, 3.1380e-003
256.665, 54.60000, 3.1444e-003
257.101, 54.70833, 3.1531e-003
257.555, 54.81667, 3.1607e-003
258, 54.92500, 3.1679e-003
258.452, 55.03333, 3.1756e-003
258.894, 55.14167, 3.1828e-003
259.342, 55.25000, 3.1899e-003
259.782, 55.35833, 3.1965e-003
260.229, 55.46667, 3.2037e-003
260.67, 55.57500, 3.2118e-003
261.12, 55.68333, 3.2190e-003
261.566, 55.79167, 3.2277e-003
262.01, 55.90000, 3.2344e-003
262.456, 56.00833, 3.2411e-003
262.899, 56.11667, 3.2493e-003
263.341, 56.22500, 3.2565e-003
263.776, 56.33333, 3.2640e-003
264.22, 56.44167, 3.2712e-003
264.662, 56.55000, 3.2787e-003
265.109, 56.65833, 3.2858e-003
265.549, 56.76667, 3.2932e-003
265.992, 56.87500, 3.3003e-003
266.436, 56.98333, 3.3083e-003
266.876, 57.09167, 3.3154e-003
267.313, 57.20000, 3.3230e-003
267.758, 57.30833, 3.3301e-003
268.195, 57.41667, 3.3377e-003
268.639, 57.52500, 3.3443e-003
269.084, 57.63333, 3.3515e-003
269.526, 57.74167, 3.3575e-003
269.958, 57.85000, 3.3657e-003
270.401, 57.95833, 3.3728e-003
270.839, 58.06667, 3.3796e-003
271.275, 58.17500, 3.3885e-003
271.711, 58.28333, 3.3949e-003
272.146, 58.39167, 3.4019e-003
272.592, 58.50000, 3.4093e-003
273.032, 58.60833, 3.4158e-003
273.468, 58.71667, 3.4241e-003
273.909, 58.82500, 3.4313e-003
274.34, 58.93333, 3.4382e-003
274.791, 59.04167, 3.4452e-003
275.219, 59.15000, 3.4522e-003
275.668, 59.25833, 3.4588e-003
276.097, 59.36667, 3.4681e-003
276.534, 59.47500, 3.4752e-003
276.969, 59.58333, 3.4815e-003
277.407, 59.69167, 3.4881e-003
277.845, 59.80000, 3.4946e-003
278.276, 59.90833, 3.5035e-003
278.707, 60.01667, 3.5112e-003
279.147, 60.12500, 3.5185e-003
279.576, 60.23333, 3.5246e-003
280.007, 60.34167, 3.5311e-003
280.439, 60.45000, 3.5386e-003
280.874, 60.55833, 3.5451e-003
281.3, 60.66667, 3.5514e-003
281.739, 60.77500, 3.5592e-003
282.17, 60.88333, 3.5675e-003
282.594, 60.99167, 3.5740e-003
283.029, 61.10000, 3.5803e-003
283.464, 61.20833, 3.5869e-003
283.894, 61.31667, 3.5938e-003
284.32, 61.42500, 3.6017e-003
284.761, 61.53333, 3.6095e-003
285.187, 61.64167, 3.6159e-003
285.616, 61.75000, 3.6222e-003
286.049, 61.85833, 3.6288e-003
286.481, 61.96667, 3.6364e-003
286.911, 62.07500, 3.6440e-003
287.34, 62.18333, 3.6503e-003
287.762, 62.29167, 3.6582e-003
288.19, 62.40000, 3.6647e-003
288.612, 62.50833, 3.6720e-003
289.044, 62.61667, 3.6786e-003
289.472, 62.72500, 3.6853e-003
289.904, 62.83333, 3.6918e-003
290.332, 62.94167, 3.6986e-003
290.762, 63.05000, 3.7046e-003
291.191, 63.15833, 3.7110e-003
291.619, 63.26667, 3.7175e-003
292.049, 63.37500, 3.7270e-003
292.482, 63.48333, 3.7342e-003
292.911, 63.59167, 3.7413e-003
293.34, 63.70000, 3.7490e-003
293.762, 63.80833, 3.7552e-003
294.176, 63.91667, 3.7615e-003
294.606, 64.02500, 3.7689e-003
295.026, 64.13333, 3.7753e-003
295.455, 64.24167, 3.7827e-003
295.877, 64.35000, 3.7894e-003
296.304, 64.45833, 3.7967e-003
296.733, 64.56667, 3.8046e-003
297.159, 64.67500, 3.8119e-003
297.587, 64.78333, 3.8183e-003
298.008, 64.89167, 3.8244e-003
298.43, 65.00000, 3.8316e-003
298.852, 65.10833, 3.8390e-003
299.281, 65.21667, 3.8456e-003
299.704, 65.32500, 3.8521e-003
300.127, 65.43333, 3.8600e-003
300.552, 65.54167, 3.8675e-003
300.971, 65.65000, 3.8740e-003
301.392, 65.75833, 3.8806e-003
301.814, 65.86667, 3.8868e-003
302.231, 65.97500, 3.8945e-003
302.652, 66.08333, 3.9009e-003
303.071, 66.19167, 3.9068e-003
303.492, 66.30000, 3.9140e-003
303.909, 66.40833, 3.9210e-003
304.33, 66.51667, 3.9277e-003
304.745, 66.62500, 3.9355e-003
305.172, 66.73333, 3.9422e-003
305.595, 66.84167, 3.9483e-003
306.014, 66.95000, 3.9559e-003
306.429, 67.05833, 3.9624e-003
306.853, 67.16667, 3.9688e-003
307.274, 67.27500, 3.9749e-003
307.69, 67.38333, 3.9816e-003
308.108, 67.49167, 3.9873e-003
308.526, 67.60000, 3.9956e-003
308.945, 67.70833, 4.0018e-003
309.353, 67.81667, 4.0080e-003
309.777, 67.92500, 4.0141e-003
310.197, 68.03333, 4.0208e-003
310.613, 68.14167, 4.0286e-003
311.033, 68.25000, 4.0360e-003
311.443, 68.35833, 4.0428e-003
311.862, 68.46667, 4.0504e-003
312.272, 68.57500, 4.0585e-003
312.69, 68.68333, 4.0645e-003
313.106, 68.79167, 4.0705e-003
313.519, 68.90000, 4.0774e-003
313.937, 69.00833, 4.0833e-003
314.355, 69.11667, 4.0914e-003
314.767, 69.22500, 4.0974e-003
315.184, 69.33333, 4.1041e-003
315.601, 69.44167, 4.1110e-003
316.009, 69.55000, 4.1192e-003
316.423, 69.65833, 4.1255e-003
316.845, 69.76667, 4.1336e-003
317.256, 69.87500, 4.1392e-003
317.668, 69.98333, 4.1459e-003
318.071, 70.09167, 4.1515e-003
318.493, 70.20000, 4.1589e-003
318.904, 70.30833, 4.1655e-003
319.323, 70.41667, 4.1714e-003
319.727, 70.52500, 4.1789e-003
320.138, 70.63333, 4.1853e-003
320.55, 70.74167, 4.1912e-003
320.963, 70.85000, 4.1996e-003
321.372, 70.95833, 4.2060e-003
321.783, 71.06667, 4.2125e-003
322.198, 71.17500, 4.2190e-003
322.61, 71.28333, 4.2249e-003
323.025, 71.39167, 4.2314e-003
323.43, 71.50000, 4.2399e-003
323.848, 71.60833, 4.2464e-003
324.247, 71.71667, 4.2524e-003
324.666, 71.82500, 4.2593e-003
325.067, 71.93333, 4.2652e-003
325.474, 72.04167, 4.2715e-003
325.885, 72.15000, 4.2803e-003
326.286, 72.25833, 4.2864e-003
326.698, 72.36667, 4.2961e-003
327.102, 72.47500, 4.3024e-003
327.508, 72.58333, 4.3088e-003
327.912, 72.69167, 4.3151e-003
328.317, 72.80000, 4.3217e-003
328.724, 72.90833, 4.3303e-003
329.12, 73.01667, 4.3367e-003
329.528, 73.12500, 4.3438e-003
329.928, 73.23333, 4.3498e-003
330.332, 73.34167, 4.3564e-003
330.729, 73.45000, 4.3628e-003
331.123, 73.55833, 4.3691e-003
331.523, 73.66667, 4.3753e-003
331.923, 73.77500, 4.3818e-003
332.32, 73.88333, 4.3912e-003
332.72, 73.99167, 4.3975e-003
333.116, 74.10000, 4.4038e-003
333.514, 74.20833, 4.4101e-003
333.917, 74.31667, 4.4172e-003
334.31, 74.42500, 4.4246e-003
334.715, 74.53333, 4.4310e-003
335.113, 74.64167, 4.4369e-003
335.514, 74.75000, 4.4428e-003
335.914, 74.85833, 4.4518e-003
336.318, 74.96667, 4.4580e-003
336.721, 75.07500, 4.4653e-003
337.124, 75.18333, 4.4713e-003
337.527, 75.29167, 4.4768e-003
337.937, 75.40000, 4.4825e-003
338.344, 75.50833, 4.4883e-003
338.748, 75.61667, 4.4947e-003
339.156, 75.72500, 4.5026e-003
339.564, 75.83333, 4.5085e-003
339.971, 75.94167, 4.5155e-003
340.383, 76.05000, 4.5224e-003
340.8, 76.15833, 4.5284e-003
341.211, 76.26667, 4.5334e-003
341.621, 76.37500, 4.5394e-003
342.035, 76.48333, 4.5478e-003
342.453, 76.59167, 4.5537e-003
342.873, 76.70000, 4.5596e-003
343.291, 76.80833, 4.5651e-003
343.701, 76.91667, 4.5713e-003
344.122, 77.02500, 4.5783e-003
344.539, 77.13333, 4.5856e-003
344.961, 77.24167, 4.5918e-003
345.382, 77.35000, 4.5977e-003
345.8, 77.45833, 4.6034e-003
346.214, 77.56667, 4.6104e-003
346.635, 77.67500, 4.6164e-003
347.052, 77.78333, 4.6223e-003
347.462, 77.89167, 4.6300e-003
347.879, 78.00000, 4.6361e-003
348.293, 78.10833, 4.6422e-003
348.708, 78.21667, 4.6485e-003
349.131, 78.32500, 4.6544e-003
349.55, 78.43333, 4.6604e-003
349.962, 78.54167, 4.6670e-003
350.375, 78.65000, 4.6765e-003
350.792, 78.75833, 4.6846e-003
351.2, 78.86667, 4.6910e-003
351.62, 78.97500, 4.6969e-003
352.029, 79.08333, 4.7031e-003
352.44, 79.19167, 4.7091e-003
352.849, 79.30000, 4.7169e-003
353.258, 79.40833, 4.7234e-003
353.674, 79.51667, 4.7291e-003
354.079, 79.62500, 4.7357e-003
354.482, 79.73333, 4.7437e-003
354.891, 79.84167, 4.7499e-003
355.299, 79.95000, 4.7581e-003
355.699, 80.05833, 4.7648e-003
356.107, 80.16667, 4.7704e-003
356.509, 80.27500, 4.7784e-003
356.912, 80.38333, 4.7842e-003
357.319, 80.49167, 4.7901e-003
357.719, 80.60000, 4.7959e-003
358.114, 80.70833, 4.8022e-003
358.522, 80.81667, 4.8088e-003
358.919, 80.92500, 4.8164e-003
359.314, 81.03333, 4.8221e-003
359.725, 81.14167, 4.8283e-003
360.123, 81.25000, 4.8359e-003
360.528, 81.35833, 4.8421e-003
360.928, 81.46667, 4.8479e-003
361.334, 81.57500, 4.8539e-003
361.729, 81.68333, 4.8599e-003
362.125, 81.79167, 4.8660e-003
362.529, 81.90000, 4.8723e-003
362.921, 82.00833, 4.8815e-003
363.316, 82.11667, 4.8873e-003
363.71, 82.22500, 4.8931e-003
364.105, 82.33333, 4.8990e-003
364.5, 82.44167, 4.9048e-003
364.892, 82.55000, 4.9105e-003
365.287, 82.65833, 4.9200e-003
365.682, 82.76667, 4.9259e-003
366.071, 82.87500, 4.9313e-003
366.471, 82.98333, 4.9377e-003
366.857, 83.09167, 4.9452e-003
367.249, 83.20000, 4.9525e-003
367.64, 83.30833, 4.9587e-003
368.034, 83.41667, 4.9644e-003
368.423, 83.52500, 4.9704e-003
368.818, 83.63333, 4.9763e-003
369.206, 83.74167, 4.9826e-003
369.601, 83.85000, 4.9890e-003
369.988, 83.95833, 4.9961e-003
370.378, 84.06667, 5.0022e-003
370.762, 84.17500, 5.0079e-003
371.142, 84.28333, 5.0141e-003
371.537, 84.39167, 5.0212e-003
371.924, 84.50000, 5.0273e-003
372.31, 84.60833, 5.0331e-003
372.699, 84.71667, 5.0389e-003
373.086, 84.82500, 5.0450e-003
373.47, 84.93333, 5.0522e-003
373.853, 85.04167, 5.0589e-003
374.239, 85.15000, 5.0649e-003
374.629, 85.25833, 5.0707e-003
375.018, 85.36667, 5.0766e-003
375.401, 85.47500, 5.0822e-003
375.788, 85.58333, 5.0881e-003
376.171, 85.69167, 5.0939e-003
376.559, 85.80000, 5.0996e-003
376.935, 85.90833, 5.1083e-003
377.317, 86.01667, 5.1138e-003
377.696, 86.12500, 5.1196e-003
378.081, 86.23333, 5.1254e-003
378.468, 86.34167, 5.1333e-003
378.85, 86.45000, 5.1391e-003
379.237, 86.55833, 5.1446e-003
379.621, 86.66667, 5.1501e-003
380.006, 86.77500, 5.1562e-003
380.388, 86.88333, 5.1621e-003
380.771, 86.99167, 5.1691e-003
381.155, 87.10000, 5.1765e-003
381.531, 87.20833, 5.1822e-003
381.909, 87.31667, 5.1881e-003
382.294, 87.42500, 5.1939e-003
382.672, 87.53333, 5.1992e-003
383.048, 87.64167, 5.2071e-003
383.424, 87.75000, 5.2130e-003
383.804, 87.85833, 5.2188e-003
384.189, 87.96667, 5.2243e-003
384.562, 88.07500, 5.2303e-003
384.941, 88.18333, 5.2379e-003
385.32, 88.29167, 5.2443e-003
385.698, 88.40000, 5.2504e-003
386.077, 88.50833, 5.2560e-003
386.457, 88.61667, 5.2615e-003
386.827, 88.72500, 5.2685e-003
387.202, 88.83333, 5.2743e-003
387.58, 88.94167, 5.2800e-003
387.956, 89.05000, 5.2856e-003
388.338, 89.15833, 5.2915e-003
388.716, 89.26667, 5.2996e-003
389.094, 89.37500, 5.3053e-003
389.468, 89.48333, 5.3112e-003
389.854, 89.59167, 5.3167e-003
390.221, 89.70000, 5.3224e-003
390.598, 89.80833, 5.3277e-003
390.978, 89.91667, 5.3340e-003
391.345, 90.02500, 5.3389e-003
391.723, 90.13333, 5.3449e-003
392.1, 90.24167, 5.3539e-003
392.468, 90.35000, 5.3594e-003
392.846, 90.45833, 5.3655e-003
393.228, 90.56667, 5.3710e-003
393.599, 90.67500, 5.3767e-003
393.976, 90.78333, 5.3820e-003
394.348, 90.89167, 5.3896e-003
394.72, 91.00000, 5.3954e-003
395.096, 91.10833, 5.4009e-003
395.467, 91.21667, 5.4068e-003
395.846, 91.32500, 5.4119e-003
396.222, 91.43333, 5.4208e-003
396.59, 91.54167, 5.4272e-003
396.958, 91.65000, 5.4324e-003
397.342, 91.75833, 5.4381e-003
397.713, 91.86667, 5.4434e-003
398.089, 91.97500, 5.4507e-003
398.461, 92.08333, 5.4563e-003
398.831, 92.19167, 5.4617e-003
399.203, 92.30000, 5.4673e-003
399.571, 92.40833, 5.4729e-003
399.942, 92.51667, 5.4791e-003
400.32, 92.62500, 5.4878e-003
400.691, 92.73333, 5.4933e-003
401.069, 92.84167, 5.4986e-003
401.434, 92.95000, 5.5044e-003
401.808, 93.05833, 5.5108e-003
402.178, 93.16667, 5.5167e-003
402.552, 93.27500, 5.5226e-003
402.918, 93.38333, 5.5298e-003
403.292, 93.49167, 5.5354e-003
403.663, 93.60000, 5.5409e-003
404.032, 93.70833, 5.5464e-003
404.403, 93.81667, 5.5538e-003
404.775, 93.92500, 5.5595e-003
405.14, 94.03333, 5.5650e-003
405.515, 94.14167, 5.5702e-003
405.88, 94.25000, 5.5753e-003
406.245, 94.35833, 5.5811e-003
406.617, 94.46667, 5.5884e-003
406.991, 94.57500, 5.5939e-003
407.354, 94.68333, 5.5989e-003
407.712, 94.79167, 5.6046e-003
408.09, 94.90000, 5.6120e-003
408.467, 95.00833, 5.6189e-003
408.837, 95.11667, 5.6244e-003
409.203, 95.22500, 5.6297e-003
409.567, 95.33333, 5.6351e-003
409.936, 95.44167, 5.6407e-003
410.306, 95.55000, 5.6463e-003
410.672, 95.65833, 5.6518e-003
411.033, 95.76667, 5.6570e-003
411.412, 95.87500, 5.6628e-003
411.78, 95.98333, 5.6710e-003
412.153, 96.09167, 5.6767e-003
412.518, 96.20000, 5.6821e-003
412.893, 96.30833, 5.6874e-003
413.256, 96.41667, 5.6931e-003
413.624, 96.52500, 5.7030e-003
413.989, 96.63333, 5.7083e-003
414.374, 96.74167, 5.7142e-003
414.736, 96.85000, 5.7193e-003
415.1, 96.95833, 5.7245e-003
415.463, 97.06667, 5.7294e-003
415.826, 97.17500, 5.7379e-003
416.195, 97.28333, 5.7445e-003
416.553, 97.39167, 5.7495e-003
416.923, 97.50000, 5.7562e-003
417.288, 97.60833, 5.7614e-003
417.651, 97.71667, 5.7668e-003
418.023, 97.82500, 5.7718e-003
418.391, 97.93333, 5.7777e-003
418.75, 98.04167, 5.7832e-003
419.118, 98.15000, 5.7885e-003
419.478, 98.25833, 5.7939e-003
419.842, 98.36667, 5.7989e-003
420.205, 98.47500, 5.8044e-003
420.571, 98.58333, 5.8102e-003
420.931, 98.69167, 5.8177e-003
421.302, 98.80000, 5.8234e-003
421.659, 98.90833, 5.8285e-003
422.022, 99.01667, 5.8338e-003
422.391, 99.12500, 5.8423e-003
422.748, 99.23333, 5.8484e-003
423.117, 99.34167, 5.8544e-003
423.478, 99.45000, 5.8593e-003
423.842, 99.55833, 5.8661e-003
424.208, 99.66667, 5.8713e-003
424.566, 99.77500, 5.8765e-003
424.925, 99.88333, 5.8837e-003
425.296, 99.99167, 5.8889e-003
425.655,100.1, 5.8969e-003
426.017,100.208, 5.9021e-003
426.378,100.317, 5.9072e-003
426.737,100.425, 5.9131e-003
427.101,100.533, 5.9208e-003
427.467,100.642, 5.9264e-003
427.827,100.75, 5.9319e-003
428.193,100.858, 5.9372e-003
428.553,100.967, 5.9423e-003
428.915,101.075, 5.9474e-003
429.277,101.183, 5.9530e-003
429.64,101.292, 5.9582e-003
430.001,101.4, 5.9635e-003
430.36,101.508, 5.9687e-003
430.722,101.617, 5.9745e-003
431.083,101.725, 5.9818e-003
431.441,101.833, 5.9869e-003
431.804,101.942, 5.9926e-003
432.166,102.05, 5.9980e-003
432.525,102.158, 6.0032e-003
432.885,102.267, 6.0113e-003
433.238,102.375, 6.0169e-003
433.603,102.483, 6.0223e-003
433.967,102.592, 6.0279e-003
434.323,102.7, 6.0355e-003
434.685,102.808, 6.0424e-003
435.049,102.917, 6.0481e-003
435.406,103.025, 6.0534e-003
435.764,103.133, 6.0597e-003
436.121,103.242, 6.0653e-003
436.47,103.35, 6.0702e-003
436.83,103.458, 6.0758e-003
437.186,103.567, 6.0810e-003
437.543,103.675, 6.0875e-003
437.903,103.783, 6.0933e-003
438.263,103.892, 6.0986e-003
438.619,104, 6.1033e-003
438.977,104.108, 6.1084e-003
439.333,104.217, 6.1157e-003
439.692,104.325, 6.1216e-003
440.051,104.433, 6.1280e-003
440.41,104.542, 6.1335e-003
440.76,104.65, 6.1382e-003
441.116,104.758, 6.1441e-003
441.48,104.867, 6.1491e-003
441.841,104.975, 6.1546e-003
442.202,105.083, 6.1599e-003
442.558,105.192, 6.1670e-003
442.911,105.3, 6.1725e-003
443.267,105.408, 6.1781e-003
443.617,105.517, 6.1826e-003
443.962,105.625, 6.1881e-003
444.315,105.733, 6.1935e-003
444.676,105.842, 6.1989e-003
445.032,105.95, 6.2043e-003
445.391,106.058, 6.2120e-003
445.736,106.167, 6.2172e-003
446.097,106.275, 6.2226e-003
446.45,106.383, 6.2277e-003
446.805,106.492, 6.2353e-003
447.155,106.6, 6.2404e-003
447.511,106.708, 6.2457e-003
447.859,106.817, 6.2515e-003
448.216,106.925, 6.2567e-003
448.567,107.033, 6.2618e-003
448.918,107.142, 6.2666e-003
449.274,107.25, 6.2762e-003
449.619,107.358, 6.2814e-003
449.978,107.467, 6.2866e-003
450.325,107.575, 6.2920e-003
450.677,107.683, 6.2973e-003
451.028,107.792, 6.3025e-003
451.386,107.9, 6.3102e-003
451.737,108.008, 6.3157e-003
452.094,108.117, 6.3211e-003
452.442,108.225, 6.3264e-003
452.792,108.333, 6.3317e-003
453.149,108.442, 6.3369e-003
453.502,108.55, 6.3422e-003
453.851,108.658, 6.3496e-003
454.205,108.767, 6.3550e-003
454.544,108.875, 6.3615e-003
454.903,108.983, 6.3667e-003
455.248,109.092, 6.3721e-003
455.604,109.2, 6.3774e-003
455.965,109.308, 6.3824e-003
456.318,109.417, 6.3877e-003
456.676,109.525, 6.3932e-003
457.022,109.633, 6.3985e-003
457.373,109.742, 6.4070e-003
457.725,109.85, 6.4134e-003
458.075,109.958, 6.4187e-003
458.423,110.067, 6.4236e-003
458.777,110.175, 6.4301e-003
459.129,110.283, 6.4364e-003
459.474,110.392, 6.4412e-003
459.824,110.5, 6.4461e-003
460.164,110.608, 6.4529e-003
460.514,110.717, 6.4579e-003
460.865,110.825, 6.4628e-003
461.216,110.933, 6.4682e-003
461.559,111.042, 6.4751e-003
461.915,111.15, 6.4805e-003
462.262,111.258, 6.4857e-003
462.611,111.367, 6.4909e-003
462.962,111.475, 6.4959e-003
463.313,111.583, 6.5035e-003
463.653,111.692, 6.5086e-003
464.001,111.8, 6.5138e-003
464.345,111.908, 6.5188e-003
464.696,112.017, 6.5247e-003
465.038,112.125, 6.5318e-003
465.38,112.233, 6.5370e-003
465.731,112.342, 6.5422e-003
466.082,112.45, 6.5478e-003
466.421,112.558, 6.5528e-003
466.765,112.667, 6.5577e-003
467.115,112.775, 6.5632e-003
467.467,112.883, 6.5683e-003
467.815,112.992, 6.5737e-003
468.155,113.1, 6.5788e-003
468.504,113.208, 6.5862e-003
468.855,113.317, 6.5914e-003
469.195,113.425, 6.5979e-003
469.551,113.533, 6.6033e-003
469.886,113.642, 6.6085e-003
470.238,113.75, 6.6141e-003
470.594,113.858, 6.6194e-003
470.943,113.967, 6.6263e-003
471.296,114.075, 6.6311e-003
471.632,114.183, 6.6362e-003
471.978,114.292, 6.6416e-003
472.318,114.4, 6.6466e-003
472.667,114.508, 6.6516e-003
473.008,114.617, 6.6576e-003
473.353,114.725, 6.6627e-003
473.699,114.833, 6.6681e-003
474.044,114.942, 6.6732e-003
474.394,115.05, 6.6791e-003
474.749,115.158, 6.6840e-003
475.088,115.267, 6.6906e-003
475.436,115.375, 6.6958e-003
475.779,115.483, 6.7007e-003
476.128,115.592, 6.7084e-003
476.471,115.7, 6.7135e-003
476.81,115.808, 6.7187e-003
477.153,115.917, 6.7238e-003
477.496,116.025, 6.7307e-003
477.843,116.133, 6.7357e-003
478.183,116.242, 6.7407e-003
478.527,116.35, 6.7455e-003
478.869,116.458, 6.7513e-003
479.213,116.567, 6.7565e-003
479.553,116.675, 6.7633e-003
479.898,116.783, 6.7685e-003
480.237,116.892, 6.7735e-003
480.576,117, 6.7791e-003
480.919,117.108, 6.7841e-003
481.259,117.217, 6.7892e-003
481.603,117.325, 6.7962e-003
481.941,117.433, 6.8017e-003
482.283,117.542, 6.8068e-003
482.626,117.65, 6.8123e-003
482.96,117.758, 6.8176e-003
483.297,117.867, 6.8231e-003
483.635,117.975, 6.8280e-003
483.973,118.083, 6.8337e-003
484.306,118.192, 6.8414e-003
484.641,118.3, 6.8465e-003
484.979,118.408, 6.8521e-003
485.308,118.517, 6.8574e-003
485.65,118.625, 6.8632e-003
485.979,118.733, 6.8684e-003
486.317,118.842, 6.8759e-003
486.649,118.95, 6.8810e-003
486.982,119.058, 6.8862e-003
487.309,119.167, 6.8916e-003
487.645,119.275, 6.8971e-003
487.975,119.383, 6.9020e-003
488.305,119.492, 6.9073e-003
488.639,119.6, 6.9156e-003
488.976,119.708, 6.9210e-003
489.31,119.817, 6.9276e-003
489.651,119.925, 6.9319e-003
489.975,120.033, 6.9369e-003
490.31,120.142, 6.9418e-003
490.646,120.25, 6.9473e-003
490.98,120.358, 6.9522e-003
491.326,120.467, 6.9570e-003
491.662,120.575, 6.9636e-003
491.993,120.683, 6.9686e-003
492.337,120.792, 6.9738e-003
492.677,120.9, 6.9781e-003
493.014,121.008, 6.9850e-003
493.355,121.117, 6.9896e-003
493.709,121.225, 6.9946e-003
494.059,121.333, 6.9996e-003
494.402,121.442, 7.0062e-003
494.754,121.55, 7.0111e-003
495.1,121.658, 7.0159e-003
495.454,121.767, 7.0208e-003
495.805,121.875, 7.0254e-003
496.159,121.983, 7.0308e-003
496.501,122.092, 7.0351e-003
496.862,122.2, 7.0403e-003
497.213,122.308, 7.0452e-003
497.568,122.417, 7.0502e-003
497.916,122.525, 7.0552e-003
498.273,122.633, 7.0625e-003
498.618,122.742, 7.0684e-003
498.978,122.85, 7.0738e-003
499.331,122.958, 7.0789e-003
499.685,123.067, 7.0862e-003
500.025,123.175, 7.0910e-003
500.381,123.283, 7.0963e-003
500.738,123.392, 7.1015e-003
501.095,123.5, 7.1064e-003
501.443,123.608, 7.1115e-003
501.789,123.717, 7.1170e-003
502.138,123.825, 7.1213e-003
502.487,123.933, 7.1274e-003
502.832,124.042, 7.1325e-003
503.182,124.15, 7.1398e-003
503.529,124.258, 7.1447e-003
503.874,124.367, 7.1498e-003
504.221,124.475, 7.1570e-003
504.566,124.583, 7.1623e-003
504.903,124.692, 7.1673e-003
505.243,124.8, 7.1722e-003
505.585,124.908, 7.1775e-003
505.929,125.017, 7.1825e-003
506.271,125.125, 7.1909e-003
506.613,125.233, 7.1959e-003
506.954,125.342, 7.2014e-003
507.297,125.45, 7.2064e-003
507.638,125.558, 7.2125e-003
507.977,125.667, 7.2179e-003
508.319,125.775, 7.2229e-003
508.659,125.883, 7.2283e-003
509.002,125.992, 7.2330e-003
509.336,126.1, 7.2380e-003
509.672,126.208, 7.2429e-003
510.015,126.317, 7.2479e-003
510.35,126.425, 7.2547e-003
510.686,126.533, 7.2599e-003
511.021,126.642, 7.2646e-003
511.361,126.75, 7.2698e-003
511.696,126.858, 7.2750e-003
512.036,126.967, 7.2800e-003
512.375,127.075, 7.2868e-003
512.704,127.183, 7.2919e-003
513.045,127.292, 7.2972e-003
513.383,127.4, 7.3019e-003
513.719,127.508, 7.3091e-003
514.051,127.617, 7.3142e-003
514.391,127.725, 7.3193e-003
514.723,127.833, 7.3242e-003
515.064,127.942, 7.3306e-003
515.393,128.05, 7.3356e-003
515.72,128.158, 7.3404e-003
516.053,128.267, 7.3456e-003
516.382,128.375, 7.3507e-003
516.717,128.483, 7.3554e-003
517.049,128.592, 7.3605e-003
517.379,128.7, 7.3657e-003
517.717,128.808, 7.3725e-003
518.05,128.917, 7.3785e-003
518.378,129.025, 7.3836e-003
518.717,129.133, 7.3890e-003
519.046,129.242, 7.3936e-003
519.373,129.35, 7.3985e-003
519.71,129.458, 7.4034e-003
520.038,129.567, 7.4091e-003
520.368,129.675, 7.4149e-003
520.699,129.783, 7.4199e-003
521.024,129.892, 7.4259e-003
521.354,130, 7.4310e-003
521.683,130.108, 7.4359e-003
522.013,130.217, 7.4421e-003
522.345,130.325, 7.4469e-003
522.68,130.433, 7.4524e-003
523.003,130.542, 7.4584e-003
523.333,130.65, 7.4631e-003
523.66,130.758, 7.4683e-003
523.996,130.867, 7.4733e-003
524.326,130.975, 7.4796e-003
524.651,131.083, 7.4843e-003
524.971,131.192, 7.4890e-003
525.305,131.3, 7.4944e-003
525.631,131.408, 7.5006e-003
525.961,131.517, 7.5056e-003
526.29,131.625, 7.5107e-003
526.617,131.733, 7.5153e-003
526.945,131.842, 7.5204e-003
527.272,131.95, 7.5251e-003
527.594,132.058, 7.5300e-003
527.916,132.167, 7.5369e-003
528.242,132.275, 7.5415e-003
528.569,132.383, 7.5467e-003
528.897,132.492, 7.5514e-003
529.225,132.6, 7.5569e-003
529.544,132.708, 7.5625e-003
529.874,132.817, 7.5676e-003
530.205,132.925, 7.5724e-003
530.523,133.033, 7.5788e-003
530.848,133.142, 7.5836e-003
531.171,133.25, 7.5886e-003
531.503,133.358, 7.5935e-003
531.827,133.467, 7.5987e-003
532.157,133.575, 7.6046e-003
532.484,133.683, 7.6099e-003
532.808,133.792, 7.6154e-003
533.139,133.9, 7.6202e-003
533.461,134.008, 7.6257e-003
533.786,134.117, 7.6311e-003
534.107,134.225, 7.6364e-003
534.432,134.333, 7.6415e-003
534.76,134.442, 7.6467e-003
535.09,134.55, 7.6525e-003
535.419,134.658, 7.6572e-003
535.731,134.767, 7.6664e-003
536.061,134.875, 7.6715e-003
536.38,134.983, 7.6761e-003
536.702,135.092, 7.6809e-003
537.026,135.2, 7.6861e-003
537.35,135.308, 7.6910e-003
537.669,135.417, 7.6958e-003
537.991,135.525, 7.7004e-003
538.316,135.633, 7.7067e-003
538.648,135.742, 7.7120e-003
538.969,135.85, 7.7190e-003
539.299,135.958, 7.7241e-003
539.617,136.067, 7.7291e-003
539.938,136.175, 7.7339e-003
540.263,136.283, 7.7391e-003
540.582,136.392, 7.7438e-003
540.905,136.5, 7.7484e-003
541.227,136.608, 7.7535e-003
541.551,136.717, 7.7601e-003
541.872,136.825, 7.7646e-003
542.193,136.933, 7.7695e-003
542.522,137.042, 7.7745e-003
542.847,137.15, 7.7797e-003
543.163,137.258, 7.7842e-003
543.478,137.367, 7.7892e-003
543.803,137.475, 7.7938e-003
544.126,137.583, 7.7992e-003
544.45,137.692, 7.8056e-003
544.767,137.8, 7.8103e-003
545.089,137.908, 7.8153e-003
545.41,138.017, 7.8203e-003
545.729,138.125, 7.8249e-003
546.042,138.233, 7.8322e-003
546.369,138.342, 7.8369e-003
546.692,138.45, 7.8427e-003
547.011,138.558, 7.8473e-003
547.323,138.667, 7.8521e-003
547.645,138.775, 7.8582e-003
547.965,138.883, 7.8628e-003
548.285,138.992, 7.8677e-003
548.609,139.1, 7.8723e-003
548.931,139.208, 7.8773e-003
549.253,139.317, 7.8824e-003
549.571,139.425, 7.8884e-003
549.891,139.533, 7.8933e-003
550.214,139.642, 7.8980e-003
550.535,139.75, 7.9033e-003
550.851,139.858, 7.9075e-003
551.172,139.967, 7.9143e-003
551.486,140.075, 7.9189e-003
551.804,140.183, 7.9239e-003
552.13,140.292, 7.9302e-003
552.449,140.4, 7.9349e-003
552.777,140.508, 7.9397e-003
553.103,140.617, 7.9444e-003
553.423,140.725, 7.9491e-003
553.744,140.833, 7.9557e-003
554.062,140.942, 7.9607e-003
554.384,141.05, 7.9656e-003
554.702,141.158, 7.9698e-003
555.023,141.267, 7.9747e-003
555.339,141.375, 7.9793e-003
555.656,141.483, 7.9867e-003
555.982,141.592, 7.9912e-003
556.308,141.7, 7.9962e-003
556.622,141.808, 8.0020e-003
556.941,141.917, 8.0076e-003
557.26,142.025, 8.0124e-003
557.58,142.133, 8.0171e-003
557.9,142.242, 8.0220e-003
558.217,142.35, 8.0268e-003
558.537,142.458, 8.0319e-003
558.855,142.567, 8.0375e-003
559.171,142.675, 8.0421e-003
559.491,142.783, 8.0472e-003
559.804,142.892, 8.0532e-003
560.127,143, 8.0580e-003
560.445,143.108, 8.0632e-003
560.772,143.217, 8.0679e-003
561.091,143.325, 8.0725e-003
561.403,143.433, 8.0774e-003
561.718,143.542, 8.0839e-003
562.038,143.65, 8.0894e-003
562.36,143.758, 8.0942e-003
562.679,143.867, 8.0990e-003
562.991,143.975, 8.1035e-003
563.309,144.083, 8.1085e-003
563.631,144.192, 8.1148e-003
563.95,144.3, 8.1209e-003
564.261,144.408, 8.1255e-003
564.587,144.517, 8.1307e-003
564.896,144.625, 8.1353e-003
565.218,144.733, 8.1398e-003
565.534,144.842, 8.1450e-003
565.844,144.95, 8.1493e-003
566.163,145.058, 8.1540e-003
566.486,145.167, 8.1605e-003
566.8,145.275, 8.1652e-003
567.115,145.383, 8.1716e-003
567.431,145.492, 8.1759e-003
567.75,145.6, 8.1806e-003
568.064,145.708, 8.1854e-003
568.381,145.817, 8.1900e-003
568.695,145.925, 8.1961e-003
569.012,146.033, 8.2018e-003
569.334,146.142, 8.2059e-003
569.646,146.25, 8.2111e-003
569.962,146.358, 8.2163e-003
570.283,146.467, 8.2203e-003
570.599,146.575, 8.2267e-003
570.915,146.683, 8.2315e-003
571.218,146.792, 8.2361e-003
571.544,146.9, 8.2410e-003
571.863,147.008, 8.2472e-003
572.174,147.117, 8.2523e-003
572.493,147.225, 8.2571e-003
572.806,147.333, 8.2618e-003
573.122,147.442, 8.2666e-003
573.433,147.55, 8.2729e-003
573.744,147.658, 8.2776e-003
574.06,147.767, 8.2824e-003
574.376,147.875, 8.2872e-003
574.688,147.983, 8.2916e-003
575.008,148.092, 8.2979e-003
575.323,148.2, 8.3024e-003
575.64,148.308, 8.3071e-003
575.95,148.417, 8.3118e-003
576.267,148.525, 8.3172e-003
576.571,148.633, 8.3227e-003
576.887,148.742, 8.3268e-003
577.205,148.85, 8.3327e-003
577.517,148.958, 8.3376e-003
577.832,149.067, 8.3424e-003
578.148,149.175, 8.3469e-003
578.465,149.283, 8.3533e-003
578.785,149.392, 8.3578e-003
579.095,149.5, 8.3625e-003
579.407,149.608, 8.3672e-003
579.725,149.717, 8.3718e-003
580.04,149.825, 8.3769e-003
580.35,149.933, 8.3833e-003
580.666,150.042, 8.3889e-003
580.975,150.15, 8.3937e-003
581.291,150.258, 8.3981e-003
581.603,150.367, 8.4029e-003
581.919,150.475, 8.4082e-003
582.232,150.583, 8.4127e-003
582.556,150.692, 8.4190e-003
582.864,150.8, 8.4235e-003
583.177,150.908, 8.4286e-003
583.49,151.017, 8.4330e-003
583.81,151.125, 8.4374e-003
584.113,151.233, 8.4435e-003
584.431,151.342, 8.4482e-003
584.742,151.45, 8.4531e-003
585.055,151.558, 8.4576e-003
585.372,151.667, 8.4638e-003
585.679,151.775, 8.4688e-003
585.998,151.883, 8.4734e-003
586.31,151.992, 8.4782e-003
586.616,152.1, 8.4841e-003
586.935,152.208, 8.4891e-003
587.246,152.317, 8.4937e-003
587.556,152.425, 8.4987e-003
587.867,152.533, 8.5031e-003
588.181,152.642, 8.5097e-003
588.494,152.75, 8.5145e-003
588.805,152.858, 8.5191e-003
589.119,152.967, 8.5235e-003
589.422,153.075, 8.5284e-003
589.745,153.183, 8.5349e-003
590.058,153.292, 8.5398e-003
590.372,153.4, 8.5444e-003
590.681,153.508, 8.5492e-003
590.992,153.617, 8.5550e-003
591.293,153.725, 8.5595e-003
591.601,153.833, 8.5645e-003
591.916,153.942, 8.5691e-003
592.222,154.05, 8.5747e-003
592.527,154.158, 8.5812e-003
592.84,154.267, 8.5868e-003
593.151,154.375, 8.5912e-003
593.456,154.483, 8.5962e-003
593.77,154.592, 8.6024e-003
594.075,154.7, 8.6073e-003
594.381,154.808, 8.6121e-003
594.685,154.917, 8.6172e-003
594.996,155.025, 8.6220e-003
595.295,155.133, 8.6288e-003
595.602,155.242, 8.6334e-003
595.903,155.35, 8.6384e-003
596.209,155.458, 8.6449e-003
596.51,155.567, 8.6501e-003
596.817,155.675, 8.6549e-003
597.121,155.783, 8.6596e-003
597.421,155.892, 8.6644e-003
597.722,156, 8.6701e-003
598.022,156.108, 8.6751e-003
598.326,156.217, 8.6798e-003
598.627,156.325, 8.6854e-003
598.928,156.433, 8.6906e-003
599.232,156.542, 8.6955e-003
599.535,156.65, 8.7000e-003
599.837,156.758, 8.7047e-003
600.136,156.867, 8.7087e-003
600.446,156.975, 8.7136e-003
600.751,157.083, 8.7179e-003
601.062,157.192, 8.7225e-003
601.37,157.3, 8.7290e-003
601.679,157.408, 8.7336e-003
601.997,157.517, 8.7382e-003
602.307,157.625, 8.7422e-003
602.621,157.733, 8.7484e-003
602.932,157.842, 8.7530e-003
603.252,157.95, 8.7577e-003
603.573,158.058, 8.7622e-003
603.885,158.167, 8.7684e-003
604.207,158.275, 8.7727e-003
604.521,158.383, 8.7767e-003
604.843,158.492, 8.7826e-003
605.171,158.6, 8.7870e-003
605.486,158.708, 8.7918e-003
605.815,158.817, 8.7964e-003
606.127,158.925, 8.8011e-003
606.453,159.033, 8.8058e-003
606.761,159.142, 8.8102e-003
607.085,159.25, 8.8166e-003
607.412,159.358, 8.8215e-003
607.732,159.467, 8.8266e-003
608.053,159.575, 8.8325e-003
608.375,159.683, 8.8374e-003
608.692,159.792, 8.8417e-003
609.009,159.9, 8.8467e-003
609.333,160.008, 8.8522e-003
609.643,160.117, 8.8572e-003
609.899,160.203, 8.8604e-003