File: data/8.1mm/albAmel010sTr1-8.7mm.csv
#EXPORTTYPE:           ,DATA ALL
#FILE:                 ,albAmel010Trun1.ngb-sle
#FORMAT:               ,NETZSCH5
#FTYPE:                ,ANSI
#IDENTITY:             ,albite 010
#DECIMAL:              ,POINT
#SEPARATOR:            ,COMMA
#MTYPE:                ,DIL
#INSTRUMENT:           ,NETZSCH DIL 402C
#PROJECT:              ,feldspar
#DATE/TIME:            ,8/22/2019 10:14:26 AM (UTC-5)
#CORR. FILE:           ,
#TEMPCAL:              ,TCALZERO.TMX
#LABORATORY:           ,Mineral Physics
#OPERATOR:             ,PAG
#REMARK:               ,bare, norm start, for short plageioclase, sapphire, amel alb 010 twin
#SAMPLE:               ,amelia twin
#SAMPLE LENGTH /mm:    ,8.715
#MATERIAL:             ,sapphire stnd
#MEASMODE:             ,Standard Expansion
#PURGE GAS 1:          ,ARGON
#FLOW RATE 1 /(ml/min):,75
#M.RANGE /µm:          ,500
#CORR. CODE:           ,010
#RANGE:                ,20.0°C/3.0(K/min)/1020.0°C
#SEGMENT:              ,S1/1
#SEG. 1:               ,20.0°C/3.0(K/min)/1020.0°C

##Temp./°C,Time/min,dL/Lo
  21.35100,  0.00000, 1.3908e-005
  22.35100,  4.37447,-1.4410e-005
  23.35100,  4.85549,-3.1753e-005
  24.35100,  5.21024,-4.6434e-005
  25.35100,  5.50896,-6.1246e-005
  26.35100,  5.77580,-7.2192e-005
  27.35100,  6.02247,-8.2118e-005
  28.35100,  6.25585,-8.9865e-005
  29.35100,  6.48119,-9.6370e-005
  30.35100,  6.70053,-1.0161e-004
  31.35100,  6.91626,-1.0480e-004
  32.35100,  7.12899,-1.0733e-004
  33.35100,  7.34043,-1.0805e-004
  34.35100,  7.55066,-1.0758e-004
  35.35100,  7.76022,-1.0624e-004
  36.35100,  7.96935,-1.0420e-004
  37.35100,  8.17866,-1.0092e-004
  38.35100,  8.38786,-9.7164e-005
  39.35100,  8.59657,-9.2588e-005
  40.35100,  8.80518,-8.7067e-005
  41.35100,  9.01350,-8.1518e-005
  42.35100,  9.22073,-7.5103e-005
  43.35100,  9.42709,-6.8734e-005
  44.35100,  9.63251,-6.2055e-005
  45.35100,  9.83683,-5.5478e-005
  46.35100, 10.03929,-4.8416e-005
  47.35100, 10.23964,-4.1082e-005
  48.35100, 10.43822,-3.3832e-005
  49.35100, 10.63545,-2.6517e-005
  50.35100, 10.83164,-1.8845e-005
  51.35100, 11.02638,-1.0494e-005
  52.35100, 11.21981,-2.7391e-006
  53.35100, 11.41207, 5.6240e-006
  54.35100, 11.60335, 1.3539e-005
  55.35100, 11.79399, 2.2519e-005
  56.35100, 11.98442, 3.1806e-005
  57.35100, 12.17432, 4.0225e-005
  58.35100, 12.36358, 4.9224e-005
  59.35100, 12.55310, 5.9040e-005
  60.35100, 12.74168, 6.8854e-005
  61.35100, 12.93009, 7.9040e-005
  62.35100, 13.11860, 8.9183e-005
  63.35100, 13.30671, 9.9706e-005
  64.35100, 13.49553, 1.0953e-004
  65.35100, 13.68449, 1.2054e-004
  66.35100, 13.87369, 1.3169e-004
  67.35100, 14.06298, 1.4270e-004
  68.35100, 14.25262, 1.5402e-004
  69.35100, 14.44215, 1.6578e-004
  70.35100, 14.63173, 1.7717e-004
  71.35100, 14.82141, 1.8918e-004
  72.35100, 15.01108, 2.0089e-004
  73.35100, 15.20117, 2.1279e-004
  74.35100, 15.39126, 2.2475e-004
  75.35100, 15.58193, 2.3641e-004
  76.35100, 15.77295, 2.4906e-004
  77.35100, 15.96417, 2.6071e-004
  78.35100, 16.15524, 2.7353e-004
  79.35100, 16.34600, 2.8611e-004
  80.35100, 16.53751, 2.9870e-004
  81.35100, 16.73000, 3.1128e-004
  82.35100, 16.92303, 3.2318e-004
  83.35100, 17.11661, 3.3638e-004
  84.35100, 17.30973, 3.4854e-004
  85.35100, 17.50239, 3.6150e-004
  86.35100, 17.69522, 3.7376e-004
  87.35100, 17.88823, 3.8716e-004
  88.35100, 18.08194, 3.9996e-004
  89.35100, 18.27716, 4.1286e-004
  90.35100, 18.47262, 4.2560e-004
  91.35100, 18.66845, 4.3900e-004
  92.35100, 18.86440, 4.5173e-004
  93.35100, 19.06034, 4.6516e-004
  94.35100, 19.25700, 4.7853e-004
  95.35100, 19.45413, 4.9189e-004
  96.35100, 19.65167, 5.0459e-004
  97.35100, 19.84981, 5.1859e-004
  98.35100, 20.04840, 5.3155e-004
  99.35100, 20.24735, 5.4496e-004
 100.351, 20.44689, 5.5841e-004
 101.351, 20.64660, 5.7191e-004
 102.351, 20.84705, 5.8579e-004
 103.351, 21.04713, 5.9919e-004
 104.351, 21.24714, 6.1332e-004
 105.351, 21.44734, 6.2653e-004
 106.351, 21.64762, 6.4027e-004
 107.351, 21.84841, 6.5418e-004
 108.351, 22.05010, 6.6813e-004
 109.351, 22.25269, 6.8198e-004
 110.351, 22.45608, 6.9527e-004
 111.351, 22.66002, 7.0959e-004
 112.351, 22.86288, 7.2292e-004
 113.351, 23.06571, 7.3685e-004
 114.351, 23.26847, 7.5072e-004
 115.351, 23.47155, 7.6501e-004
 116.351, 23.67527, 7.7865e-004
 117.351, 23.87939, 7.9237e-004
 118.351, 24.08413, 8.0636e-004
 119.351, 24.28969, 8.2077e-004
 120.351, 24.49542, 8.3474e-004
 121.351, 24.70123, 8.4873e-004
 122.351, 24.90704, 8.6326e-004
 123.351, 25.11319, 8.7776e-004
 124.351, 25.31978, 8.9138e-004
 125.351, 25.52701, 9.0500e-004
 126.351, 25.73445, 9.1937e-004
 127.351, 25.94189, 9.3339e-004
 128.351, 26.14944, 9.4781e-004
 129.351, 26.35678, 9.6193e-004
 130.351, 26.56478, 9.7649e-004
 131.351, 26.77276, 9.9027e-004
 132.351, 26.98191, 1.0048e-003
 133.351, 27.19139, 1.0187e-003
 134.351, 27.40117, 1.0332e-003
 135.351, 27.61128, 1.0475e-003
 136.351, 27.82130, 1.0618e-003
 137.351, 28.03171, 1.0759e-003
 138.351, 28.24229, 1.0903e-003
 139.351, 28.45321, 1.1049e-003
 140.351, 28.66414, 1.1191e-003
 141.351, 28.87504, 1.1332e-003
 142.351, 29.08576, 1.1479e-003
 143.351, 29.29691, 1.1624e-003
 144.351, 29.50860, 1.1767e-003
 145.351, 29.72046, 1.1909e-003
 146.351, 29.93255, 1.2055e-003
 147.351, 30.14486, 1.2196e-003
 148.351, 30.35761, 1.2341e-003
 149.351, 30.57016, 1.2490e-003
 150.351, 30.78303, 1.2630e-003
 151.351, 30.99606, 1.2773e-003
 152.351, 31.20995, 1.2921e-003
 153.351, 31.42338, 1.3067e-003
 154.351, 31.63760, 1.3210e-003
 155.351, 31.85235, 1.3355e-003
 156.351, 32.06760, 1.3503e-003
 157.351, 32.28352, 1.3648e-003
 158.351, 32.49862, 1.3789e-003
 159.351, 32.71380, 1.3937e-003
 160.351, 32.92903, 1.4082e-003
 161.351, 33.14453, 1.4224e-003
 162.351, 33.36107, 1.4373e-003
 163.351, 33.57737, 1.4518e-003
 164.351, 33.79407, 1.4662e-003
 165.351, 34.01047, 1.4808e-003
 166.351, 34.22731, 1.4954e-003
 167.351, 34.44458, 1.5101e-003
 168.351, 34.66224, 1.5242e-003
 169.351, 34.88020, 1.5387e-003
 170.351, 35.09853, 1.5532e-003
 171.351, 35.31680, 1.5679e-003
 172.351, 35.53518, 1.5828e-003
 173.351, 35.75425, 1.5972e-003
 174.351, 35.97424, 1.6123e-003
 175.351, 36.19459, 1.6271e-003
 176.351, 36.41472, 1.6421e-003
 177.351, 36.63473, 1.6571e-003
 178.351, 36.85474, 1.6719e-003
 179.351, 37.07532, 1.6882e-003
 180.351, 37.29635, 1.7037e-003
 181.351, 37.51738, 1.7187e-003
 182.351, 37.73868, 1.7341e-003
 183.351, 37.95997, 1.7492e-003
 184.351, 38.18183, 1.7634e-003
 185.351, 38.40436, 1.7776e-003
 186.351, 38.62746, 1.7927e-003
 187.351, 38.85119, 1.8076e-003
 188.351, 39.07479, 1.8227e-003
 189.351, 39.29804, 1.8379e-003
 190.351, 39.52089, 1.8525e-003
 191.351, 39.74386, 1.8676e-003
 192.351, 39.96806, 1.8831e-003
 193.351, 40.19205, 1.8977e-003
 194.351, 40.41624, 1.9132e-003
 195.351, 40.64019, 1.9286e-003
 196.351, 40.86448, 1.9438e-003
 197.351, 41.08925, 1.9591e-003
 198.351, 41.31501, 1.9738e-003
 199.351, 41.54176, 1.9890e-003
 200.351, 41.76915, 2.0045e-003
 201.351, 41.99655, 2.0201e-003
 202.351, 42.22382, 2.0354e-003
 203.351, 42.45113, 2.0506e-003
 204.351, 42.67834, 2.0658e-003
 205.351, 42.90591, 2.0819e-003
 206.351, 43.13320, 2.0964e-003
 207.351, 43.36094, 2.1122e-003
 208.351, 43.58875, 2.1272e-003
 209.351, 43.81719, 2.1422e-003
 210.351, 44.04610, 2.1575e-003
 211.351, 44.27580, 2.1726e-003
 212.351, 44.50562, 2.1880e-003
 213.351, 44.73570, 2.2028e-003
 214.351, 44.96560, 2.2182e-003
 215.351, 45.19530, 2.2332e-003
 216.351, 45.42526, 2.2488e-003
 217.351, 45.65561, 2.2640e-003
 218.351, 45.88689, 2.2796e-003
 219.351, 46.11831, 2.2952e-003
 220.351, 46.35008, 2.3104e-003
 221.351, 46.58215, 2.3261e-003
 222.351, 46.81458, 2.3415e-003
 223.351, 47.04748, 2.3567e-003
 224.351, 47.28066, 2.3723e-003
 225.351, 47.51436, 2.3939e-003
 226.351, 47.74939, 2.4093e-003
 227.351, 47.98422, 2.4247e-003
 228.351, 48.21835, 2.4418e-003
 229.351, 48.45130, 2.4582e-003
 230.351, 48.68513, 2.4738e-003
 231.351, 48.91978, 2.4889e-003
 232.351, 49.15521, 2.5047e-003
 233.351, 49.39077, 2.5199e-003
 234.351, 49.62653, 2.5353e-003
 235.351, 49.86273, 2.5506e-003
 236.351, 50.09922, 2.5680e-003
 237.351, 50.33623, 2.5834e-003
 238.351, 50.57412, 2.6014e-003
 239.351, 50.81237, 2.6171e-003
 240.351, 51.05161, 2.6331e-003
 241.351, 51.29118, 2.6527e-003
 242.351, 51.53117, 2.6715e-003
 243.351, 51.77201, 2.6896e-003
 244.351, 52.01358, 2.7071e-003
 245.351, 52.25616, 2.7233e-003
 246.351, 52.49833, 2.7396e-003
 247.351, 52.74062, 2.7560e-003
 248.351, 52.98292, 2.7746e-003
 249.351, 53.22543, 2.7908e-003
 250.351, 53.46785, 2.8065e-003
 251.351, 53.70992, 2.8219e-003
 252.351, 53.95179, 2.8373e-003
 253.351, 54.19248, 2.8530e-003
 254.351, 54.43215, 2.8693e-003
 255.351, 54.67041, 2.8839e-003
 256.351, 54.90761, 2.8981e-003
 257.351, 55.14372, 2.9130e-003
 258.351, 55.37859, 2.9280e-003
 259.351, 55.61256, 2.9431e-003
 260.351, 55.84576, 2.9580e-003
 261.351, 56.07882, 2.9723e-003
 262.351, 56.31143, 2.9885e-003
 263.351, 56.54393, 3.0049e-003
 264.351, 56.77640, 3.0199e-003
 265.351, 57.00990, 3.0353e-003
 266.351, 57.24404, 3.0502e-003
 267.351, 57.47910, 3.0654e-003
 268.351, 57.71477, 3.0825e-003
 269.351, 57.95136, 3.0979e-003
 270.351, 58.18864, 3.1138e-003
 271.351, 58.42710, 3.1293e-003
 272.351, 58.66642, 3.1462e-003
 273.351, 58.90710, 3.1629e-003
 274.351, 59.14808, 3.1802e-003
 275.351, 59.38970, 3.1966e-003
 276.351, 59.63091, 3.2126e-003
 277.351, 59.87255, 3.2284e-003
 278.351, 60.11536, 3.2451e-003
 279.351, 60.35986, 3.2609e-003
 280.351, 60.60564, 3.2778e-003
 281.351, 60.85190, 3.2957e-003
 282.351, 61.09882, 3.3140e-003
 283.351, 61.34644, 3.3295e-003
 284.351, 61.59430, 3.3454e-003
 285.351, 61.84255, 3.3629e-003
 286.351, 62.09129, 3.3785e-003
 287.351, 62.34090, 3.3943e-003
 288.351, 62.59099, 3.4119e-003
 289.351, 62.84219, 3.4298e-003
 290.351, 63.09417, 3.4457e-003
 291.351, 63.34665, 3.4617e-003
 292.351, 63.59905, 3.4787e-003
 293.351, 63.85170, 3.4946e-003
 294.351, 64.10567, 3.5123e-003
 295.351, 64.36066, 3.5279e-003
 296.351, 64.61654, 3.5442e-003
 297.351, 64.87263, 3.5680e-003
 298.351, 65.12937, 3.5861e-003
 299.351, 65.38646, 3.6026e-003
 300.351, 65.64381, 3.6188e-003
 301.351, 65.90131, 3.6350e-003
 302.351, 66.15906, 3.6512e-003
 303.351, 66.41701, 3.6746e-003
 304.351, 66.67539, 3.6900e-003
 305.351, 66.93451, 3.7058e-003
 306.351, 67.19432, 3.7235e-003
 307.351, 67.45516, 3.7392e-003
 308.351, 67.71570, 3.7561e-003
 309.351, 67.97654, 3.7720e-003
 310.351, 68.23796, 3.7884e-003
 311.351, 68.50009, 3.8043e-003
 312.351, 68.76212, 3.8212e-003
 313.351, 69.02451, 3.8381e-003
 314.351, 69.28764, 3.8556e-003
 315.351, 69.55106, 3.8742e-003
 316.351, 69.81487, 3.8926e-003
 317.351, 70.07914, 3.9084e-003
 318.351, 70.34333, 3.9255e-003
 319.351, 70.60693, 3.9422e-003
 320.351, 70.87131, 3.9587e-003
 321.351, 71.13637, 3.9748e-003
 322.351, 71.40215, 3.9911e-003
 323.351, 71.66879, 4.0077e-003
 324.351, 71.93577, 4.0240e-003
 325.351, 72.20277, 4.0417e-003
 326.351, 72.46902, 4.0586e-003
 327.351, 72.73535, 4.0764e-003
 328.351, 73.00298, 4.0923e-003
 329.351, 73.27145, 4.1082e-003
 330.351, 73.54003, 4.1244e-003
 331.351, 73.80879, 4.1399e-003
 332.351, 74.07802, 4.1574e-003
 333.351, 74.34670, 4.1740e-003
 334.351, 74.61563, 4.1898e-003
 335.351, 74.88498, 4.2061e-003
 336.351, 75.15487, 4.2223e-003
 337.351, 75.42492, 4.2378e-003
 338.351, 75.69540, 4.2544e-003
 339.351, 75.96623, 4.2710e-003
 340.351, 76.23728, 4.2869e-003
 341.351, 76.50815, 4.3032e-003
 342.351, 76.77977, 4.3191e-003
 343.351, 77.05151, 4.3363e-003
 344.351, 77.32379, 4.3528e-003
 345.351, 77.59608, 4.3690e-003
 346.351, 77.86845, 4.3874e-003
 347.351, 78.14087, 4.4033e-003
 348.351, 78.41453, 4.4196e-003
 349.351, 78.68848, 4.4364e-003
 350.351, 78.96245, 4.4547e-003
 351.351, 79.23615, 4.4700e-003
 352.351, 79.51007, 4.4862e-003
 353.351, 79.78520, 4.5024e-003
 354.351, 80.06122, 4.5200e-003
 355.351, 80.33741, 4.5366e-003
 356.351, 80.61372, 4.5531e-003
 357.351, 80.88940, 4.5693e-003
 358.351, 81.16536, 4.5861e-003
 359.351, 81.44125, 4.6017e-003
 360.351, 81.71846, 4.6174e-003
 361.351, 81.99582, 4.6365e-003
 362.351, 82.27435, 4.6534e-003
 363.351, 82.55248, 4.6693e-003
 364.351, 82.83110, 4.6858e-003
 365.351, 83.10975, 4.7020e-003
 366.351, 83.38887, 4.7190e-003
 367.351, 83.66836, 4.7351e-003
 368.351, 83.94831, 4.7524e-003
 369.351, 84.22879, 4.7690e-003
 370.351, 84.50946, 4.7853e-003
 371.351, 84.79088, 4.8020e-003
 372.351, 85.07296, 4.8190e-003
 373.351, 85.35487, 4.8361e-003
 374.351, 85.63682, 4.8529e-003
 375.351, 85.91862, 4.8698e-003
 376.351, 86.20092, 4.8867e-003
 377.351, 86.48356, 4.9034e-003
 378.351, 86.76671, 4.9195e-003
 379.351, 87.05008, 4.9369e-003
 380.351, 87.33312, 4.9542e-003
 381.351, 87.61668, 4.9712e-003
 382.351, 87.90114, 4.9877e-003
 383.351, 88.18579, 5.0050e-003
 384.351, 88.47026, 5.0214e-003
 385.351, 88.75438, 5.0380e-003
 386.351, 89.03903, 5.0551e-003
 387.351, 89.32431, 5.0719e-003
 388.351, 89.60998, 5.0889e-003
 389.351, 89.89599, 5.1055e-003
 390.351, 90.18221, 5.1231e-003
 391.351, 90.46917, 5.1397e-003
 392.351, 90.75748, 5.1570e-003
 393.351, 91.04696, 5.1740e-003
 394.351, 91.33669, 5.1912e-003
 395.351, 91.62586, 5.2081e-003
 396.351, 91.91474, 5.2245e-003
 397.351, 92.20317, 5.2415e-003
 398.351, 92.49142, 5.2586e-003
 399.351, 92.77978, 5.2755e-003
 400.351, 93.06988, 5.2927e-003
 401.351, 93.36107, 5.3097e-003
 402.351, 93.65152, 5.3266e-003
 403.351, 93.94236, 5.3436e-003
 404.351, 94.23382, 5.3611e-003
 405.351, 94.52579, 5.3779e-003
 406.351, 94.81681, 5.3947e-003
 407.351, 95.10869, 5.4129e-003
 408.351, 95.40071, 5.4293e-003
 409.351, 95.69327, 5.4476e-003
 410.351, 95.98696, 5.4650e-003
 411.351, 96.28089, 5.4826e-003
 412.351, 96.57398, 5.4997e-003
 413.351, 96.86822, 5.5173e-003
 414.351, 97.16283, 5.5344e-003
 415.351, 97.45765, 5.5523e-003
 416.351, 97.75283, 5.5696e-003
 417.351, 98.04815, 5.5867e-003
 418.351, 98.34392, 5.6036e-003
 419.351, 98.63989, 5.6204e-003
 420.351, 98.93542, 5.6378e-003
 421.351, 99.23082, 5.6549e-003
 422.351, 99.52822, 5.6729e-003
 423.351, 99.82683, 5.6900e-003
 424.351,100.124, 5.7094e-003
 425.351,100.422, 5.7267e-003
 426.351,100.719, 5.7437e-003
 427.351,101.017, 5.7614e-003
 428.351,101.315, 5.7782e-003
 429.351,101.616, 5.7957e-003
 430.351,101.917, 5.8135e-003
 431.351,102.218, 5.8318e-003
 432.351,102.519, 5.8505e-003
 433.351,102.821, 5.8680e-003
 434.351,103.126, 5.8867e-003
 435.351,103.433, 5.9057e-003
 436.351,103.742, 5.9244e-003
 437.351,104.051, 5.9438e-003
 438.351,104.36, 5.9621e-003
 439.351,104.667, 5.9807e-003
 440.351,104.974, 5.9989e-003
 441.351,105.279, 6.0165e-003
 442.351,105.582, 6.0339e-003
 443.351,105.881, 6.0504e-003
 444.351,106.178, 6.0675e-003
 445.351,106.472, 6.0841e-003
 446.351,106.765, 6.1016e-003
 447.351,107.057, 6.1182e-003
 448.351,107.349, 6.1352e-003
 449.351,107.64, 6.1523e-003
 450.351,107.931, 6.1709e-003
 451.351,108.222, 6.1887e-003
 452.351,108.515, 6.2078e-003
 453.351,108.808, 6.2262e-003
 454.351,109.101, 6.2455e-003
 455.351,109.396, 6.2652e-003
 456.351,109.693, 6.2838e-003
 457.351,109.99, 6.3070e-003
 458.351,110.29, 6.3255e-003
 459.351,110.591, 6.3432e-003
 460.351,110.892, 6.3683e-003
 461.351,111.194, 6.3864e-003
 462.351,111.498, 6.4047e-003
 463.351,111.802, 6.4447e-003
 464.351,112.107, 6.4631e-003
 465.351,112.413, 6.4890e-003
 466.351,112.719, 6.5196e-003
 467.351,113.026, 6.5388e-003
 468.351,113.333, 6.5630e-003
 469.351,113.641, 6.5940e-003
 470.351,113.95, 6.6125e-003
 471.351,114.261, 6.6349e-003
 472.351,114.573, 6.6551e-003
 473.351,114.886, 6.6745e-003
 474.351,115.2, 6.6986e-003
 475.351,115.513, 6.7179e-003
 476.351,115.827, 6.7438e-003
 477.351,116.141, 6.7630e-003
 478.351,116.456, 6.7867e-003
 479.351,116.771, 6.8160e-003
 480.351,117.088, 6.8374e-003
 481.351,117.405, 6.8602e-003
 482.351,117.722, 6.8807e-003
 483.351,118.038, 6.8994e-003
 484.351,118.355, 6.9199e-003
 485.351,118.674, 6.9416e-003
 486.351,118.992, 6.9613e-003
 487.351,119.309, 6.9796e-003
 488.351,119.628, 7.0019e-003
 489.351,119.947, 7.0230e-003
 490.351,120.267, 7.0424e-003
 491.351,120.588, 7.0619e-003
 492.351,120.908, 7.0810e-003
 493.351,121.229, 7.0992e-003
 494.351,121.551, 7.1181e-003
 495.351,121.874, 7.1369e-003
 496.351,122.197, 7.1553e-003
 497.351,122.52, 7.1757e-003
 498.351,122.842, 7.1955e-003
 499.351,123.165, 7.2166e-003
 500.351,123.488, 7.2381e-003
 501.351,123.811, 7.2587e-003
 502.351,124.135, 7.2768e-003
 503.351,124.46, 7.2960e-003
 504.351,124.783, 7.3146e-003
 505.351,125.106, 7.3337e-003
 506.351,125.43, 7.3543e-003
 507.351,125.753, 7.3754e-003
 508.351,126.078, 7.3961e-003
 509.351,126.402, 7.4148e-003
 510.351,126.727, 7.4340e-003
 511.351,127.054, 7.4532e-003
 512.351,127.381, 7.4719e-003
 513.351,127.706, 7.4909e-003
 514.351,128.033, 7.5106e-003
 515.351,128.361, 7.5300e-003
 516.351,128.69, 7.5533e-003
 517.351,129.017, 7.5718e-003
 518.351,129.344, 7.5914e-003
 519.351,129.671, 7.6096e-003
 520.351,129.999, 7.6316e-003
 521.351,130.326, 7.6509e-003
 522.351,130.653, 7.6693e-003
 523.351,130.981, 7.6895e-003
 524.351,131.308, 7.7081e-003
 525.351,131.636, 7.7265e-003
 526.351,131.965, 7.7453e-003
 527.351,132.295, 7.7647e-003
 528.351,132.624, 7.7840e-003
 529.351,132.955, 7.8032e-003
 530.351,133.286, 7.8229e-003
 531.351,133.616, 7.8450e-003
 532.351,133.947, 7.8656e-003
 533.351,134.278, 7.8852e-003
 534.351,134.609, 7.9051e-003
 535.351,134.94, 7.9300e-003
 536.351,135.271, 7.9647e-003
 537.351,135.601, 7.9856e-003
 538.351,135.933, 8.0060e-003
 539.351,136.266, 8.0249e-003
 540.351,136.599, 8.0446e-003
 541.351,136.932, 8.0651e-003
 542.351,137.266, 8.0849e-003
 543.351,137.601, 8.1048e-003
 544.351,137.935, 8.1255e-003
 545.351,138.27, 8.1450e-003
 546.351,138.606, 8.1637e-003
 547.351,138.941, 8.1835e-003
 548.351,139.275, 8.2033e-003
 549.351,139.609, 8.2218e-003
 550.351,139.943, 8.2422e-003
 551.351,140.277, 8.2609e-003
 552.351,140.612, 8.2831e-003
 553.351,140.949, 8.3044e-003
 554.351,141.287, 8.3249e-003
 555.351,141.624, 8.3461e-003
 556.351,141.961, 8.3678e-003
 557.351,142.301, 8.3880e-003
 558.351,142.643, 8.4097e-003
 559.351,142.986, 8.4318e-003
 560.351,143.333, 8.4523e-003
 561.351,143.681, 8.4733e-003
 562.351,144.027, 8.4943e-003
 563.351,144.372, 8.5149e-003
 564.351,144.716, 8.5344e-003
 565.351,145.055, 8.5531e-003
 566.351,145.39, 8.5747e-003
 567.351,145.721, 8.5930e-003
 568.351,146.052, 8.6111e-003
 569.351,146.38, 8.6301e-003
 570.351,146.708, 8.6498e-003
 571.351,147.035, 8.6694e-003
 572.351,147.362, 8.6884e-003
 573.351,147.689, 8.7089e-003
 574.351,148.017, 8.7278e-003
 575.351,148.348, 8.7476e-003
 576.351,148.681, 8.7681e-003
 577.351,149.014, 8.7881e-003
 578.351,149.348, 8.8066e-003
 579.351,149.682, 8.8253e-003
 580.351,150.018, 8.8451e-003
 581.351,150.355, 8.8658e-003
 582.351,150.692, 8.8865e-003
 583.351,151.031, 8.9062e-003
 584.351,151.371, 8.9268e-003
 585.351,151.712, 8.9456e-003
 586.351,152.053, 8.9647e-003
 587.351,152.396, 8.9847e-003
 588.351,152.74, 9.0036e-003
 589.351,153.082, 9.0239e-003
 590.351,153.426, 9.0444e-003
 591.351,153.771, 9.0644e-003
 592.351,154.117, 9.0851e-003
 593.351,154.463, 9.1064e-003
 594.351,154.811, 9.1268e-003
 595.351,155.158, 9.1462e-003
 596.351,155.504, 9.1670e-003
 597.351,155.851, 9.1868e-003
 598.351,156.197, 9.2072e-003
 599.351,156.544, 9.2271e-003
 600.351,156.893, 9.2472e-003
 601.351,157.241, 9.2681e-003
 602.351,157.59, 9.2902e-003
 603.351,157.941, 9.3109e-003
 604.351,158.295, 9.3299e-003
 605.351,158.648, 9.3487e-003
 606.351,159, 9.3691e-003
 607.351,159.351, 9.3886e-003
 608.351,159.702, 9.4083e-003
 609.351,160.053, 9.4278e-003
 610.351,160.405, 9.4477e-003
 611.351,160.757, 9.4679e-003
 612.351,161.11, 9.4884e-003
 613.351,161.463, 9.5096e-003
 614.351,161.816, 9.5312e-003
 615.351,162.171, 9.5527e-003
 616.351,162.525, 9.5732e-003
 617.351,162.877, 9.5932e-003
 618.351,163.229, 9.6143e-003
 619.351,163.582, 9.6396e-003
 620.351,163.937, 9.6599e-003
 621.351,164.291, 9.6806e-003
 622.351,164.645, 9.7020e-003
 623.351,165.001, 9.7220e-003
 624.351,165.355, 9.7451e-003
 625.351,165.71, 9.7649e-003
 626.351,166.065, 9.7852e-003
 627.351,166.42, 9.8058e-003
 628.351,166.775, 9.8251e-003
 629.351,167.13, 9.8467e-003
 630.351,167.485, 9.8697e-003
 631.351,167.839, 9.8901e-003
 632.351,168.194, 9.9096e-003
 633.351,168.552, 9.9308e-003
 634.351,168.909, 9.9500e-003
 635.351,169.266, 9.9690e-003
 636.351,169.622, 9.9895e-003
 637.351,169.978, 1.0009e-002
 638.351,170.336, 1.0029e-002
 639.351,170.694, 1.0049e-002
 640.351,171.052, 1.0069e-002
 641.351,171.411, 1.0089e-002
 642.351,171.77, 1.0111e-002
 643.351,172.128, 1.0130e-002
 644.351,172.487, 1.0149e-002
 645.351,172.845, 1.0169e-002
 646.351,173.205, 1.0189e-002
 647.351,173.565, 1.0209e-002
 648.351,173.927, 1.0229e-002
 649.351,174.29, 1.0249e-002
 650.351,174.656, 1.0270e-002
 651.351,175.024, 1.0292e-002
 652.351,175.395, 1.0313e-002
 653.351,175.768, 1.0334e-002
 654.351,176.138, 1.0354e-002
 655.351,176.506, 1.0375e-002
 656.351,176.87, 1.0394e-002
 657.351,177.23, 1.0413e-002
 658.351,177.586, 1.0432e-002
 659.351,177.939, 1.0450e-002
 660.351,178.291, 1.0470e-002
 661.351,178.641, 1.0489e-002
 662.351,178.992, 1.0508e-002
 663.351,179.343, 1.0528e-002
 664.351,179.695, 1.0548e-002
 665.351,180.049, 1.0569e-002
 666.351,180.404, 1.0591e-002
 667.351,180.761, 1.0610e-002
 668.351,181.118, 1.0631e-002
 669.351,181.476, 1.0652e-002
 670.351,181.834, 1.0672e-002
 671.351,182.191, 1.0693e-002
 672.351,182.551, 1.0712e-002
 673.351,182.913, 1.0733e-002
 674.351,183.277, 1.0751e-002
 675.351,183.64, 1.0772e-002
 676.351,184.004, 1.0792e-002
 677.351,184.37, 1.0812e-002
 678.351,184.735, 1.0832e-002
 679.351,185.101, 1.0853e-002
 680.351,185.469, 1.0873e-002
 681.351,185.838, 1.0894e-002
 682.351,186.205, 1.0913e-002
 683.351,186.573, 1.0933e-002
 684.351,186.943, 1.0955e-002
 685.351,187.313, 1.0975e-002
 686.351,187.684, 1.0995e-002
 687.351,188.054, 1.1015e-002
 688.351,188.425, 1.1034e-002
 689.351,188.796, 1.1054e-002
 690.351,189.169, 1.1074e-002
 691.351,189.543, 1.1093e-002
 692.351,189.917, 1.1113e-002
 693.351,190.291, 1.1134e-002
 694.351,190.666, 1.1153e-002
 695.351,191.043, 1.1174e-002
 696.351,191.42, 1.1195e-002
 697.351,191.798, 1.1215e-002
 698.351,192.177, 1.1235e-002
 699.351,192.557, 1.1256e-002
 700.351,192.938, 1.1278e-002
 701.351,193.32, 1.1298e-002
 702.351,193.702, 1.1320e-002
 703.351,194.084, 1.1340e-002
 704.351,194.466, 1.1363e-002
 705.351,194.847, 1.1386e-002
 706.351,195.227, 1.1408e-002
 707.351,195.609, 1.1429e-002
 708.351,195.993, 1.1451e-002
 709.351,196.376, 1.1470e-002
 710.351,196.76, 1.1492e-002
 711.351,197.142, 1.1513e-002
 712.351,197.525, 1.1534e-002
 713.351,197.908, 1.1555e-002
 714.351,198.291, 1.1576e-002
 715.351,198.675, 1.1597e-002
 716.351,199.057, 1.1621e-002
 717.351,199.438, 1.1642e-002
 718.351,199.82, 1.1663e-002
 719.351,200.201, 1.1684e-002
 720.351,200.583, 1.1706e-002
 721.351,200.966, 1.1727e-002
 722.351,201.349, 1.1749e-002
 723.351,201.734, 1.1770e-002
 724.351,202.12, 1.1794e-002
 725.351,202.51, 1.1816e-002
 726.351,202.903, 1.1839e-002
 727.351,203.3, 1.1863e-002
 728.351,203.697, 1.1886e-002
 729.351,204.092, 1.1907e-002
 730.351,204.483, 1.1928e-002
 731.351,204.87, 1.1949e-002
 732.351,205.255, 1.1969e-002
 733.351,205.635, 1.1991e-002
 734.351,206.009, 1.2012e-002
 735.351,206.38, 1.2033e-002
 736.351,206.75, 1.2054e-002
 737.351,207.121, 1.2075e-002
 738.351,207.494, 1.2097e-002
 739.351,207.867, 1.2118e-002
 740.351,208.241, 1.2141e-002
 741.351,208.616, 1.2163e-002
 742.351,208.992, 1.2185e-002
 743.351,209.368, 1.2206e-002
 744.351,209.744, 1.2226e-002
 745.351,210.121, 1.2251e-002
 746.351,210.5, 1.2273e-002
 747.351,210.879, 1.2296e-002
 748.351,211.26, 1.2316e-002
 749.351,211.641, 1.2337e-002
 750.351,212.021, 1.2358e-002
 751.351,212.403, 1.2380e-002
 752.351,212.785, 1.2403e-002
 753.351,213.166, 1.2426e-002
 754.351,213.547, 1.2449e-002
 755.351,213.929, 1.2471e-002
 756.351,214.31, 1.2493e-002
 757.351,214.693, 1.2514e-002
 758.351,215.077, 1.2535e-002
 759.351,215.461, 1.2555e-002
 760.351,215.846, 1.2576e-002
 761.351,216.229, 1.2598e-002
 762.351,216.611, 1.2618e-002
 763.351,216.994, 1.2639e-002
 764.351,217.38, 1.2660e-002
 765.351,217.766, 1.2684e-002
 766.351,218.15, 1.2705e-002
 767.351,218.535, 1.2727e-002
 768.351,218.922, 1.2748e-002
 769.351,219.308, 1.2770e-002
 770.351,219.695, 1.2791e-002
 771.351,220.08, 1.2813e-002
 772.351,220.467, 1.2837e-002
 773.351,220.852, 1.2859e-002
 774.351,221.236, 1.2882e-002
 775.351,221.62, 1.2904e-002
 776.351,222.005, 1.2925e-002
 777.351,222.391, 1.2946e-002
 778.351,222.777, 1.2968e-002
 779.351,223.164, 1.2989e-002
 780.351,223.549, 1.3010e-002
 781.351,223.934, 1.3030e-002
 782.351,224.32, 1.3052e-002
 783.351,224.708, 1.3073e-002
 784.351,225.096, 1.3094e-002
 785.351,225.485, 1.3115e-002
 786.351,225.874, 1.3138e-002
 787.351,226.263, 1.3160e-002
 788.351,226.654, 1.3182e-002
 789.351,227.048, 1.3204e-002
 790.351,227.443, 1.3228e-002
 791.351,227.846, 1.3252e-002
 792.351,228.263, 1.3276e-002
 793.351,228.691, 1.3300e-002
 794.351,229.124, 1.3323e-002
 795.351,229.556, 1.3346e-002
 796.351,229.984, 1.3368e-002
 797.351,230.41, 1.3389e-002
 798.351,230.832, 1.3411e-002
 799.351,231.25, 1.3432e-002
 800.351,231.674, 1.3453e-002
 801.351,232.106, 1.3477e-002
 802.351,232.533, 1.3499e-002
 803.351,232.95, 1.3521e-002
 804.351,233.358, 1.3540e-002
 805.351,233.764, 1.3562e-002
 806.351,234.175, 1.3587e-002
 807.351,234.596, 1.3610e-002
 808.351,235.024, 1.3631e-002
 809.351,235.456, 1.3652e-002
 810.351,235.885, 1.3675e-002
 811.351,236.309, 1.3695e-002
 812.351,236.729, 1.3716e-002
 813.351,237.148, 1.3736e-002
 814.351,237.57, 1.3759e-002
 815.351,237.994, 1.3781e-002
 816.351,238.414, 1.3802e-002
 817.351,238.822, 1.3821e-002
 818.351,239.223, 1.3840e-002
 819.351,239.62, 1.3860e-002
 820.351,240.018, 1.3879e-002
 821.351,240.417, 1.3903e-002
 822.351,240.82, 1.3924e-002
 823.351,241.222, 1.3946e-002
 824.351,241.624, 1.3968e-002
 825.351,242.027, 1.3988e-002
 826.351,242.43, 1.4009e-002
 827.351,242.833, 1.4030e-002
 828.351,243.235, 1.4053e-002
 829.351,243.636, 1.4073e-002
 830.351,244.036, 1.4095e-002
 831.351,244.433, 1.4117e-002
 832.351,244.826, 1.4136e-002
 833.351,245.218, 1.4157e-002
 834.351,245.612, 1.4178e-002
 835.351,246.007, 1.4201e-002
 836.351,246.401, 1.4223e-002
 837.351,246.792, 1.4245e-002
 838.351,247.182, 1.4264e-002
 839.351,247.57, 1.4287e-002
 840.351,247.959, 1.4308e-002
 841.351,248.349, 1.4330e-002
 842.351,248.735, 1.4349e-002
 843.351,249.12, 1.4371e-002
 844.351,249.503, 1.4393e-002
 845.351,249.889, 1.4414e-002
 846.351,250.275, 1.4433e-002
 847.351,250.663, 1.4456e-002
 848.351,251.056, 1.4477e-002
 849.351,251.451, 1.4499e-002
 850.351,251.846, 1.4523e-002
 851.351,252.243, 1.4546e-002
 852.351,252.638, 1.4568e-002
 853.351,253.033, 1.4593e-002
 854.351,253.426, 1.4613e-002
 855.351,253.816, 1.4636e-002
 856.351,254.202, 1.4657e-002
 857.351,254.583, 1.4678e-002
 858.351,254.961, 1.4700e-002
 859.351,255.336, 1.4723e-002
 860.351,255.711, 1.4743e-002
 861.351,256.088, 1.4767e-002
 862.351,256.464, 1.4788e-002
 863.351,256.839, 1.4810e-002
 864.351,257.214, 1.4833e-002
 865.351,257.589, 1.4854e-002
 866.351,257.966, 1.4878e-002
 867.351,258.347, 1.4898e-002
 868.351,258.727, 1.4922e-002
 869.351,259.107, 1.4943e-002
 870.351,259.487, 1.4966e-002
 871.351,259.869, 1.4989e-002
 872.351,260.253, 1.5010e-002
 873.351,260.639, 1.5035e-002
 874.351,261.026, 1.5057e-002
 875.351,261.414, 1.5082e-002
 876.351,261.804, 1.5104e-002
 877.351,262.195, 1.5130e-002
 878.351,262.59, 1.5158e-002
 879.351,262.987, 1.5180e-002
 880.351,263.386, 1.5207e-002
 881.351,263.791, 1.5230e-002
 882.351,264.203, 1.5256e-002
 883.351,264.621, 1.5284e-002
 884.351,265.03, 1.5313e-002
 885.351,265.405, 1.5337e-002
 886.351,265.758, 1.5356e-002
 887.351,266.111, 1.5382e-002
 888.351,266.482, 1.5410e-002
 889.351,266.874, 1.5435e-002
 890.351,267.28, 1.5465e-002
 891.351,267.691, 1.5491e-002
 892.351,268.1, 1.5521e-002
 893.351,268.505, 1.5543e-002
 894.351,268.91, 1.5573e-002
 895.351,269.314, 1.5598e-002
 896.351,269.72, 1.5623e-002
 897.351,270.128, 1.5650e-002
 898.351,270.537, 1.5674e-002
 899.351,270.944, 1.5699e-002
 900.351,271.352, 1.5723e-002
 901.351,271.78, 1.5750e-002
 902.351,272.243, 1.5777e-002
 903.351,272.707, 1.5802e-002
 904.351,273.162, 1.5828e-002
 905.351,273.609, 1.5851e-002
 906.351,274.049, 1.5877e-002
 907.351,274.483, 1.5904e-002
 908.351,274.913, 1.5928e-002
 909.351,275.342, 1.5953e-002
 910.351,275.772, 1.5976e-002
 911.351,276.206, 1.6003e-002
 912.351,276.648, 1.6026e-002
 913.351,277.104, 1.6053e-002
 914.351,277.573, 1.6080e-002
 915.351,278.046, 1.6103e-002
 916.351,278.533, 1.6133e-002
 917.351,279.061, 1.6161e-002
 918.351,279.612, 1.6187e-002
 919.351,280.117, 1.6210e-002
 920.351,280.567, 1.6231e-002
 921.351,280.982, 1.6256e-002
 922.351,281.386, 1.6276e-002
 923.351,281.782, 1.6300e-002
 924.351,282.17, 1.6326e-002
 925.351,282.551, 1.6348e-002
 926.351,282.929, 1.6370e-002
 927.351,283.311, 1.6397e-002
 928.351,283.698, 1.6422e-002
 929.351,284.096, 1.6446e-002
 930.351,284.499, 1.6472e-002
 931.351,284.89, 1.6496e-002
 932.351,285.273, 1.6522e-002
 933.351,285.66, 1.6546e-002
 934.351,286.057, 1.6577e-002
 935.351,286.458, 1.6602e-002
 936.351,286.858, 1.6630e-002
 937.351,287.248, 1.6655e-002
 938.351,287.627, 1.6683e-002
 939.351,288.001, 1.6708e-002
 940.351,288.374, 1.6734e-002
 941.351,288.751, 1.6764e-002
 942.351,289.13, 1.6789e-002
 943.351,289.51, 1.6818e-002
 944.351,289.897, 1.6846e-002
 945.351,290.292, 1.6874e-002
 946.351,290.685, 1.6900e-002
 947.351,291.068, 1.6927e-002
 948.351,291.449, 1.6954e-002
 949.351,291.826, 1.6979e-002
 950.351,292.203, 1.7008e-002
 951.351,292.581, 1.7037e-002
 952.351,292.96, 1.7066e-002
 953.351,293.337, 1.7098e-002
 954.351,293.715, 1.7128e-002
 955.351,294.094, 1.7155e-002
 956.351,294.473, 1.7186e-002
 957.351,294.85, 1.7217e-002
 958.351,295.225, 1.7244e-002
 959.351,295.597, 1.7274e-002
 960.351,295.967, 1.7301e-002
 961.351,296.339, 1.7333e-002
 962.351,296.712, 1.7362e-002
 963.351,297.086, 1.7393e-002
 964.351,297.455, 1.7424e-002
 965.351,297.817, 1.7454e-002
 966.351,298.178, 1.7481e-002
 967.351,298.546, 1.7512e-002
 968.351,298.921, 1.7543e-002
 969.351,299.297, 1.7576e-002
 970.351,299.661, 1.7604e-002
 971.351,300.014, 1.7638e-002
 972.351,300.364, 1.7665e-002
 973.351,300.719, 1.7697e-002
 974.351,301.084, 1.7731e-002
 975.351,301.454, 1.7765e-002
 976.351,301.831, 1.7804e-002
 977.351,302.208, 1.7840e-002
 978.351,302.572, 1.7874e-002
 979.351,302.919, 1.7905e-002
 980.351,303.26, 1.7939e-002
 981.351,303.612, 1.7977e-002
 982.351,303.98, 1.8013e-002
 983.351,304.357, 1.8052e-002
 984.351,304.735, 1.8093e-002
 985.351,305.103, 1.8134e-002
 986.351,305.469, 1.8172e-002
 987.351,305.844, 1.8220e-002
 988.351,306.209, 1.8260e-002
 989.351,306.562, 1.8305e-002
 990.351,306.918, 1.8345e-002
 991.351,307.278, 1.8391e-002
 992.351,307.643, 1.8435e-002
 993.351,308.011, 1.8473e-002
 994.351,308.382, 1.8523e-002
 995.351,308.753, 1.8566e-002
 996.351,309.116, 1.8605e-002
 997.351,309.476, 1.8652e-002
 998.351,309.841, 1.8699e-002
 999.351,310.209, 1.8749e-002
1000.35,310.583, 1.8803e-002
1001.35,310.965, 1.8853e-002
1002.35,311.355, 1.8905e-002
1003.35,311.746, 1.8953e-002
1004.35,312.134, 1.9011e-002
1005.35,312.517, 1.9058e-002
1006.35,312.898, 1.9107e-002
1007.35,313.274, 1.9157e-002
1008.35,313.646, 1.9209e-002
1009.35,314.013, 1.9255e-002
1010.35,314.378, 1.9304e-002
1011.35,314.739, 1.9351e-002
1012.35,315.101, 1.9398e-002
1013.35,315.465, 1.9443e-002
1014.35,315.831, 1.9494e-002
1015.35,316.199, 1.9542e-002
1016.35,316.571, 1.9593e-002
1017.35,316.944, 1.9641e-002
1018.35,317.317, 1.9689e-002
1019.35,317.689, 1.9740e-002
1019.85,317.877, 1.9766e-002