File: data/8.1mm/fmt100sBr1-10.3mm.csv
#EXPORTTYPE:           ,DATA ALL
#FILE:                 ,fmtl100Brun1.ngb-sle
#FORMAT:               ,NETZSCH5
#FTYPE:                ,ANSI
#IDENTITY:             ,fmt tall
#DECIMAL:              ,POINT
#SEPARATOR:            ,COMMA
#MTYPE:                ,DIL
#INSTRUMENT:           ,NETZSCH DIL 402C
#PROJECT:              ,feldspar
#DATE/TIME:            ,8/17/2019 10:32:42 AM (UTC-5)
#CORR. FILE:           ,
#TEMPCAL:              ,TCALZERO.TMX
#LABORATORY:           ,Mineral Physics
#OPERATOR:             ,PAG
#REMARK:               ,bare, norm start, for oligoclase fmt tall
#SAMPLE:               ,fmt100B
#SAMPLE LENGTH /mm:    ,10.259
#MATERIAL:             ,sapphire stnd
#MEASMODE:             ,Standard Expansion
#PURGE GAS 1:          ,ARGON
#FLOW RATE 1 /(ml/min):,75
#M.RANGE /µm:          ,500
#CORR. CODE:           ,010
#RANGE:                ,20.0°C/3.0(K/min)/1000.0°C
#SEGMENT:              ,S1/1
#SEG. 1:               ,20.0°C/3.0(K/min)/1000.0°C

##Temp./°C,Time/min,dL/Lo
 21.96200,  0.00000, 1.8752e-005
 22.46200,  4.22018, 6.6201e-006
 22.96200,  4.57854,-1.2497e-006
 23.46200,  4.83690,-8.0046e-006
 23.96200,  5.04719,-1.3848e-005
 24.46200,  5.23072,-1.9763e-005
 24.96200,  5.39636,-2.5506e-005
 25.46200,  5.54909,-3.0614e-005
 25.96200,  5.69234,-3.4968e-005
 26.46200,  5.82779,-3.9614e-005
 26.96200,  5.95739,-4.3751e-005
 27.46200,  6.08196,-4.7448e-005
 27.96200,  6.20229,-5.0725e-005
 28.46200,  6.31952,-5.3655e-005
 28.96200,  6.43391,-5.6561e-005
 29.46200,  6.54625,-5.9303e-005
 29.96200,  6.65681,-6.1207e-005
 30.46200,  6.76596,-6.3445e-005
 30.96200,  6.87380,-6.4798e-005
 31.46200,  6.98057,-6.6780e-005
 31.96200,  7.08655,-6.7865e-005
 32.46200,  7.19186,-6.8593e-005
 32.96200,  7.29672,-6.9797e-005
 33.46200,  7.40101,-6.9982e-005
 33.96200,  7.50478,-7.0379e-005
 34.46200,  7.60866,-7.0276e-005
 34.96200,  7.71188,-7.0295e-005
 35.46200,  7.81533,-7.0148e-005
 35.96200,  7.91847,-6.9334e-005
 36.46200,  8.02137,-6.8464e-005
 36.96200,  8.12431,-6.7562e-005
 37.46200,  8.22717,-6.6442e-005
 37.96200,  8.32988,-6.4958e-005
 38.46200,  8.43275,-6.3449e-005
 38.96200,  8.53547,-6.2163e-005
 39.46200,  8.63807,-6.0642e-005
 39.96200,  8.74080,-5.8504e-005
 40.46200,  8.84345,-5.6844e-005
 40.96200,  8.94603,-5.4708e-005
 41.46200,  9.04845,-5.2980e-005
 41.96200,  9.15074,-5.1027e-005
 42.46200,  9.25279,-4.8718e-005
 42.96200,  9.35468,-4.5992e-005
 43.46200,  9.45626,-4.3913e-005
 43.96200,  9.55761,-4.1393e-005
 44.46200,  9.65876,-3.8703e-005
 44.96200,  9.75961,-3.6173e-005
 45.46200,  9.86027,-3.3884e-005
 45.96200,  9.96061,-3.0841e-005
 46.46200, 10.06071,-2.8466e-005
 46.96200, 10.16023,-2.6214e-005
 47.46200, 10.25939,-2.3144e-005
 47.96200, 10.35817,-2.0272e-005
 48.46200, 10.45662,-1.7140e-005
 48.96200, 10.55461,-1.5101e-005
 49.46200, 10.65239,-1.2222e-005
 49.96200, 10.74980,-8.9799e-006
 50.46200, 10.84705,-6.3478e-006
 50.96200, 10.94423,-3.2379e-006
 51.46200, 11.04095,-3.1656e-007
 51.96200, 11.13749, 2.9519e-006
 52.46200, 11.23362, 6.3982e-006
 52.96200, 11.32942, 9.4032e-006
 53.46200, 11.42490, 1.2278e-005
 53.96200, 11.52020, 1.5194e-005
 54.46200, 11.61531, 1.8662e-005
 54.96200, 11.71031, 2.1804e-005
 55.46200, 11.80535, 2.5299e-005
 55.96200, 11.90018, 2.8911e-005
 56.46200, 11.99486, 3.2118e-005
 56.96200, 12.08935, 3.5568e-005
 57.46200, 12.18375, 3.9351e-005
 57.96200, 12.27817, 4.3044e-005
 58.46200, 12.37218, 4.6903e-005
 58.96200, 12.46588, 5.0165e-005
 59.46200, 12.55984, 5.4131e-005
 59.96200, 12.65355, 5.8219e-005
 60.46200, 12.74743, 6.1855e-005
 60.96200, 12.84116, 6.5324e-005
 61.46200, 12.93486, 6.9230e-005
 61.96200, 13.02859, 7.3382e-005
 62.46200, 13.12255, 7.7185e-005
 62.96200, 13.21631, 8.1502e-005
 63.46200, 13.31004, 8.5553e-005
 63.96200, 13.40397, 8.9281e-005
 64.46200, 13.49757, 9.3293e-005
 64.96200, 13.59117, 9.7745e-005
 65.46200, 13.68494, 1.0190e-004
 65.96200, 13.77880, 1.0605e-004
 66.46200, 13.87251, 1.1024e-004
 66.96200, 13.96625, 1.1499e-004
 67.46200, 14.06048, 1.1912e-004
 67.96200, 14.15473, 1.2391e-004
 68.46200, 14.24933, 1.2849e-004
 68.96200, 14.34392, 1.3263e-004
 69.46200, 14.43857, 1.3753e-004
 69.96200, 14.53328, 1.4161e-004
 70.46200, 14.62799, 1.4655e-004
 70.96200, 14.72247, 1.5110e-004
 71.46200, 14.81669, 1.5580e-004
 71.96200, 14.91116, 1.6038e-004
 72.46200, 15.00575, 1.6504e-004
 72.96200, 15.10029, 1.6923e-004
 73.46200, 15.19488, 1.7426e-004
 73.96200, 15.28963, 1.7883e-004
 74.46200, 15.38460, 1.8367e-004
 74.96200, 15.47970, 1.8864e-004
 75.46200, 15.57496, 1.9315e-004
 75.96200, 15.67013, 1.9835e-004
 76.46200, 15.76542, 2.0321e-004
 76.96200, 15.86079, 2.0787e-004
 77.46200, 15.95616, 2.1319e-004
 77.96200, 16.05151, 2.1816e-004
 78.46200, 16.14706, 2.2311e-004
 78.96200, 16.24251, 2.2796e-004
 79.46200, 16.33808, 2.3282e-004
 79.96200, 16.43383, 2.3773e-004
 80.46200, 16.52976, 2.4305e-004
 80.96200, 16.62595, 2.4833e-004
 81.46200, 16.72225, 2.5322e-004
 81.96200, 16.81872, 2.5770e-004
 82.46200, 16.91537, 2.6314e-004
 82.96200, 17.01218, 2.6813e-004
 83.46200, 17.10905, 2.7346e-004
 83.96200, 17.20579, 2.7837e-004
 84.46200, 17.30250, 2.8382e-004
 84.96200, 17.39936, 2.8872e-004
 85.46200, 17.49630, 2.9401e-004
 85.96200, 17.59322, 2.9914e-004
 86.46200, 17.69011, 3.0407e-004
 86.96200, 17.78703, 3.0931e-004
 87.46200, 17.88396, 3.1444e-004
 87.96200, 17.98111, 3.1982e-004
 88.46200, 18.07822, 3.2536e-004
 88.96200, 18.17559, 3.3042e-004
 89.46200, 18.27310, 3.3584e-004
 89.96200, 18.37087, 3.4122e-004
 90.46200, 18.46872, 3.4630e-004
 90.96200, 18.56670, 3.5141e-004
 91.46200, 18.66465, 3.5649e-004
 91.96200, 18.76264, 3.6199e-004
 92.46200, 18.86075, 3.6736e-004
 92.96200, 18.95904, 3.7314e-004
 93.46200, 19.05725, 3.7828e-004
 93.96200, 19.15553, 3.8341e-004
 94.46200, 19.25395, 3.8889e-004
 94.96200, 19.35284, 3.9435e-004
 95.46200, 19.45178, 3.9955e-004
 95.96200, 19.55059, 4.0489e-004
 96.46200, 19.64950, 4.1039e-004
 96.96200, 19.74848, 4.1589e-004
 97.46200, 19.84789, 4.2114e-004
 97.96200, 19.94734, 4.2681e-004
 98.46200, 20.04687, 4.3217e-004
 98.96200, 20.14647, 4.3715e-004
 99.46200, 20.24642, 4.4309e-004
 99.96200, 20.34639, 4.4848e-004
100.462, 20.44651, 4.5376e-004
100.962, 20.54657, 4.5922e-004
101.462, 20.64656, 4.6485e-004
101.962, 20.74652, 4.7063e-004
102.462, 20.84660, 4.7564e-004
102.962, 20.94674, 4.8124e-004
103.462, 21.04657, 4.8720e-004
103.962, 21.14639, 4.9220e-004
104.462, 21.24639, 4.9787e-004
104.962, 21.34639, 5.0337e-004
105.462, 21.44644, 5.0879e-004
105.962, 21.54657, 5.1397e-004
106.462, 21.64676, 5.1937e-004
106.962, 21.74748, 5.2499e-004
107.462, 21.84861, 5.3062e-004
107.962, 21.94963, 5.3601e-004
108.462, 22.05099, 5.4103e-004
108.962, 22.15245, 5.4661e-004
109.462, 22.25404, 5.5229e-004
109.962, 22.35580, 5.5829e-004
110.462, 22.45756, 5.6387e-004
110.962, 22.55911, 5.6965e-004
111.462, 22.66091, 5.7458e-004
111.962, 22.76255, 5.8010e-004
112.462, 22.86436, 5.8610e-004
112.962, 22.96623, 5.9131e-004
113.462, 23.06807, 5.9697e-004
113.962, 23.17006, 6.0242e-004
114.462, 23.27216, 6.0848e-004
114.962, 23.37410, 6.1411e-004
115.462, 23.47619, 6.1928e-004
115.962, 23.57826, 6.2511e-004
116.462, 23.68041, 6.3038e-004
116.962, 23.78266, 6.3597e-004
117.462, 23.88485, 6.4169e-004
117.962, 23.98709, 6.4722e-004
118.462, 24.08948, 6.5255e-004
118.962, 24.19195, 6.5791e-004
119.462, 24.29473, 6.6340e-004
119.962, 24.39744, 6.6916e-004
120.462, 24.50029, 6.7434e-004
120.962, 24.60319, 6.8004e-004
121.462, 24.70614, 6.8517e-004
121.962, 24.80916, 6.9099e-004
122.462, 24.91212, 6.9649e-004
122.962, 25.01494, 7.0202e-004
123.462, 25.11785, 7.0814e-004
123.962, 25.22074, 7.1338e-004
124.462, 25.32387, 7.1885e-004
124.962, 25.42726, 7.2439e-004
125.462, 25.53075, 7.3031e-004
125.962, 25.63430, 7.3587e-004
126.462, 25.73801, 7.4135e-004
126.962, 25.84196, 7.4685e-004
127.462, 25.94603, 7.5266e-004
127.962, 26.04997, 7.5814e-004
128.462, 26.15386, 7.6366e-004
128.962, 26.25776, 7.6933e-004
129.462, 26.36163, 7.7462e-004
129.962, 26.46572, 7.8025e-004
130.462, 26.56972, 7.8589e-004
130.962, 26.67363, 7.9170e-004
131.462, 26.77782, 7.9687e-004
131.962, 26.88200, 8.0260e-004
132.462, 26.98636, 8.0803e-004
132.962, 27.09086, 8.1320e-004
133.462, 27.19534, 8.1933e-004
133.962, 27.30006, 8.2474e-004
134.462, 27.40475, 8.3042e-004
134.962, 27.50951, 8.3582e-004
135.462, 27.61452, 8.4131e-004
135.962, 27.71973, 8.4698e-004
136.462, 27.82496, 8.5235e-004
136.962, 27.93022, 8.5855e-004
137.462, 28.03542, 8.6412e-004
137.962, 28.14081, 8.6972e-004
138.462, 28.24618, 8.7507e-004
138.962, 28.35148, 8.8079e-004
139.462, 28.45674, 8.8648e-004
139.962, 28.56225, 8.9163e-004
140.462, 28.66794, 8.9724e-004
140.962, 28.77364, 9.0313e-004
141.462, 28.87953, 9.0850e-004
141.962, 28.98530, 9.1418e-004
142.462, 29.09122, 9.1943e-004
142.962, 29.19731, 9.2503e-004
143.462, 29.30314, 9.3039e-004
143.962, 29.40898, 9.3616e-004
144.462, 29.51497, 9.4166e-004
144.962, 29.62091, 9.4767e-004
145.462, 29.72686, 9.5304e-004
145.962, 29.83280, 9.5860e-004
146.462, 29.93879, 9.6410e-004
146.962, 30.04511, 9.6949e-004
147.462, 30.15120, 9.7524e-004
147.962, 30.25764, 9.8054e-004
148.462, 30.36410, 9.8613e-004
148.962, 30.47061, 9.9191e-004
149.462, 30.57713, 9.9702e-004
149.962, 30.68358, 1.0031e-003
150.462, 30.78971, 1.0085e-003
150.962, 30.89572, 1.0142e-003
151.462, 31.00168, 1.0199e-003
151.962, 31.10787, 1.0249e-003
152.462, 31.21423, 1.0306e-003
152.962, 31.32076, 1.0358e-003
153.462, 31.42751, 1.0413e-003
153.962, 31.53469, 1.0471e-003
154.462, 31.64187, 1.0524e-003
154.962, 31.74928, 1.0581e-003
155.462, 31.85667, 1.0635e-003
155.962, 31.96413, 1.0688e-003
156.462, 32.07154, 1.0743e-003
156.962, 32.17884, 1.0798e-003
157.462, 32.28630, 1.0853e-003
157.962, 32.39384, 1.0906e-003
158.462, 32.50149, 1.0961e-003
158.962, 32.60925, 1.1013e-003
159.462, 32.71706, 1.1066e-003
159.962, 32.82493, 1.1123e-003
160.462, 32.93306, 1.1180e-003
160.962, 33.04127, 1.1234e-003
161.462, 33.14933, 1.1286e-003
161.962, 33.25735, 1.1336e-003
162.462, 33.36550, 1.1393e-003
162.962, 33.47381, 1.1449e-003
163.462, 33.58200, 1.1503e-003
163.962, 33.69022, 1.1562e-003
164.462, 33.79845, 1.1617e-003
164.962, 33.90688, 1.1676e-003
165.462, 34.01528, 1.1730e-003
165.962, 34.12380, 1.1781e-003
166.462, 34.23227, 1.1834e-003
166.962, 34.34090, 1.1886e-003
167.462, 34.44950, 1.1944e-003
167.962, 34.55797, 1.1999e-003
168.462, 34.66657, 1.2049e-003
168.962, 34.77515, 1.2107e-003
169.462, 34.88379, 1.2160e-003
169.962, 34.99255, 1.2215e-003
170.462, 35.10137, 1.2271e-003
170.962, 35.21037, 1.2323e-003
171.462, 35.31965, 1.2379e-003
171.962, 35.42908, 1.2435e-003
172.462, 35.53853, 1.2480e-003
172.962, 35.64795, 1.2534e-003
173.462, 35.75758, 1.2588e-003
173.962, 35.86725, 1.2643e-003
174.462, 35.97682, 1.2705e-003
174.962, 36.08649, 1.2761e-003
175.462, 36.19622, 1.2818e-003
175.962, 36.30596, 1.2874e-003
176.462, 36.41589, 1.2928e-003
176.962, 36.52584, 1.2987e-003
177.462, 36.63606, 1.3023e-003
177.962, 36.74637, 1.3077e-003
178.462, 36.85699, 1.3138e-003
178.962, 36.96769, 1.3190e-003
179.462, 37.07854, 1.3241e-003
179.962, 37.18944, 1.3299e-003
180.462, 37.30033, 1.3352e-003
180.962, 37.41121, 1.3408e-003
181.462, 37.52195, 1.3452e-003
181.962, 37.63265, 1.3506e-003
182.462, 37.74340, 1.3560e-003
182.962, 37.85421, 1.3620e-003
183.462, 37.96506, 1.3673e-003
183.962, 38.07593, 1.3735e-003
184.462, 38.18684, 1.3789e-003
184.962, 38.29792, 1.3851e-003
185.462, 38.40905, 1.3909e-003
185.962, 38.52018, 1.3955e-003
186.462, 38.63120, 1.4010e-003
186.962, 38.74256, 1.4063e-003
187.462, 38.85410, 1.4115e-003
187.962, 38.96563, 1.4174e-003
188.462, 39.07721, 1.4223e-003
188.962, 39.18892, 1.4280e-003
189.462, 39.30082, 1.4337e-003
189.962, 39.41253, 1.4395e-003
190.462, 39.52408, 1.4451e-003
190.962, 39.63606, 1.4508e-003
191.462, 39.74779, 1.4564e-003
191.962, 39.85973, 1.4629e-003
192.462, 39.97136, 1.4678e-003
192.962, 40.08319, 1.4742e-003
193.462, 40.19525, 1.4800e-003
193.962, 40.30693, 1.4857e-003
194.462, 40.41881, 1.4916e-003
194.962, 40.53050, 1.4969e-003
195.462, 40.64254, 1.5025e-003
195.962, 40.75445, 1.5086e-003
196.462, 40.86635, 1.5149e-003
196.962, 40.97842, 1.5217e-003
197.462, 41.09055, 1.5270e-003
197.962, 41.20298, 1.5331e-003
198.462, 41.31542, 1.5386e-003
198.962, 41.42812, 1.5438e-003
199.462, 41.54112, 1.5500e-003
199.962, 41.65424, 1.5566e-003
200.462, 41.76740, 1.5627e-003
200.962, 41.88074, 1.5694e-003
201.462, 41.99416, 1.5762e-003
201.962, 42.10779, 1.5814e-003
202.462, 42.22124, 1.5878e-003
202.962, 42.33490, 1.5946e-003
203.462, 42.44862, 1.6006e-003
203.962, 42.56229, 1.6078e-003
204.462, 42.67595, 1.6145e-003
204.962, 42.78982, 1.6211e-003
205.462, 42.90370, 1.6281e-003
205.962, 43.01773, 1.6348e-003
206.462, 43.13137, 1.6420e-003
206.962, 43.24493, 1.6484e-003
207.462, 43.35860, 1.6556e-003
207.962, 43.47241, 1.6628e-003
208.462, 43.58617, 1.6700e-003
208.962, 43.69988, 1.6757e-003
209.462, 43.81369, 1.6829e-003
209.962, 43.92785, 1.6904e-003
210.462, 44.04215, 1.6980e-003
210.962, 44.15662, 1.7046e-003
211.462, 44.27107, 1.7116e-003
211.962, 44.38578, 1.7189e-003
212.462, 44.50056, 1.7258e-003
212.962, 44.61539, 1.7334e-003
213.462, 44.73035, 1.7405e-003
213.962, 44.84511, 1.7477e-003
214.462, 44.95979, 1.7549e-003
214.962, 45.07434, 1.7621e-003
215.462, 45.18892, 1.7696e-003
215.962, 45.30349, 1.7770e-003
216.462, 45.41790, 1.7847e-003
216.962, 45.53257, 1.7920e-003
217.462, 45.64748, 1.7991e-003
217.962, 45.76274, 1.8063e-003
218.462, 45.87812, 1.8139e-003
218.962, 45.99380, 1.8211e-003
219.462, 46.10976, 1.8294e-003
219.962, 46.22567, 1.8368e-003
220.462, 46.34150, 1.8440e-003
220.962, 46.45726, 1.8514e-003
221.462, 46.57307, 1.8596e-003
221.962, 46.68883, 1.8672e-003
222.462, 46.80434, 1.8754e-003
222.962, 46.92004, 1.8833e-003
223.462, 47.03575, 1.8915e-003
223.962, 47.15159, 1.8995e-003
224.462, 47.26762, 1.9072e-003
224.962, 47.38391, 1.9150e-003
225.462, 47.50021, 1.9230e-003
225.962, 47.61663, 1.9308e-003
226.462, 47.73316, 1.9387e-003
226.962, 47.84962, 1.9468e-003
227.462, 47.96620, 1.9544e-003
227.962, 48.08264, 1.9622e-003
228.462, 48.19930, 1.9702e-003
228.962, 48.31610, 1.9784e-003
229.462, 48.43292, 1.9860e-003
229.962, 48.54975, 1.9941e-003
230.462, 48.66663, 2.0018e-003
230.962, 48.78358, 2.0096e-003
231.462, 48.90058, 2.0176e-003
231.962, 49.01761, 2.0255e-003
232.462, 49.13468, 2.0337e-003
232.962, 49.25200, 2.0415e-003
233.462, 49.36942, 2.0496e-003
233.962, 49.48690, 2.0575e-003
234.462, 49.60420, 2.0657e-003
234.962, 49.72171, 2.0731e-003
235.462, 49.83924, 2.0811e-003
235.962, 49.95679, 2.0893e-003
236.462, 50.07432, 2.0971e-003
236.962, 50.19197, 2.1050e-003
237.462, 50.30979, 2.1132e-003
237.962, 50.42757, 2.1212e-003
238.462, 50.54541, 2.1296e-003
238.962, 50.66338, 2.1376e-003
239.462, 50.78156, 2.1455e-003
239.962, 50.89984, 2.1539e-003
240.462, 51.01822, 2.1618e-003
240.962, 51.13702, 2.1700e-003
241.462, 51.25593, 2.1781e-003
241.962, 51.37485, 2.1860e-003
242.462, 51.49384, 2.1942e-003
242.962, 51.61292, 2.2021e-003
243.462, 51.73212, 2.2101e-003
243.962, 51.85115, 2.2181e-003
244.462, 51.97004, 2.2266e-003
244.962, 52.08900, 2.2343e-003
245.462, 52.20788, 2.2425e-003
245.962, 52.32668, 2.2503e-003
246.462, 52.44572, 2.2585e-003
246.962, 52.56471, 2.2668e-003
247.462, 52.68399, 2.2750e-003
247.962, 52.80338, 2.2827e-003
248.462, 52.92280, 2.2907e-003
248.962, 53.04239, 2.2985e-003
249.462, 53.16204, 2.3068e-003
249.962, 53.28184, 2.3147e-003
250.462, 53.40154, 2.3224e-003
250.962, 53.52164, 2.3308e-003
251.462, 53.64176, 2.3390e-003
251.962, 53.76189, 2.3467e-003
252.462, 53.88205, 2.3545e-003
252.962, 54.00231, 2.3624e-003
253.462, 54.12299, 2.3703e-003
253.962, 54.24337, 2.3776e-003
254.462, 54.36397, 2.3856e-003
254.962, 54.48471, 2.3935e-003
255.462, 54.60555, 2.4010e-003
255.962, 54.72651, 2.4092e-003
256.462, 54.84741, 2.4168e-003
256.962, 54.96890, 2.4251e-003
257.462, 55.09044, 2.4330e-003
257.962, 55.21165, 2.4403e-003
258.462, 55.33305, 2.4492e-003
258.962, 55.45463, 2.4573e-003
259.462, 55.57610, 2.4653e-003
259.962, 55.69711, 2.4733e-003
260.462, 55.81834, 2.4814e-003
260.962, 55.94004, 2.4898e-003
261.462, 56.06183, 2.4976e-003
261.962, 56.18360, 2.5055e-003
262.462, 56.30554, 2.5133e-003
262.962, 56.42757, 2.5214e-003
263.462, 56.54966, 2.5297e-003
263.962, 56.67186, 2.5377e-003
264.462, 56.79402, 2.5459e-003
264.962, 56.91623, 2.5533e-003
265.462, 57.03854, 2.5613e-003
265.962, 57.16093, 2.5694e-003
266.462, 57.28341, 2.5772e-003
266.962, 57.40607, 2.5851e-003
267.462, 57.52853, 2.5931e-003
267.962, 57.65108, 2.6009e-003
268.462, 57.77394, 2.6090e-003
268.962, 57.89707, 2.6171e-003
269.462, 58.02035, 2.6250e-003
269.962, 58.14351, 2.6326e-003
270.462, 58.26716, 2.6403e-003
270.962, 58.39077, 2.6482e-003
271.462, 58.51402, 2.6561e-003
271.962, 58.63716, 2.6639e-003
272.462, 58.76027, 2.6718e-003
272.962, 58.88360, 2.6801e-003
273.462, 59.00695, 2.6881e-003
273.962, 59.13042, 2.6961e-003
274.462, 59.25418, 2.7042e-003
274.962, 59.37836, 2.7119e-003
275.462, 59.50245, 2.7195e-003
275.962, 59.62656, 2.7273e-003
276.462, 59.75072, 2.7357e-003
276.962, 59.87501, 2.7437e-003
277.462, 59.99943, 2.7516e-003
277.962, 60.12357, 2.7592e-003
278.462, 60.24796, 2.7673e-003
278.962, 60.37255, 2.7752e-003
279.462, 60.49730, 2.7831e-003
279.962, 60.62219, 2.7914e-003
280.462, 60.74710, 2.7993e-003
280.962, 60.87218, 2.8069e-003
281.462, 60.99716, 2.8151e-003
281.962, 61.12195, 2.8229e-003
282.462, 61.24692, 2.8308e-003
282.962, 61.37199, 2.8392e-003
283.462, 61.49738, 2.8468e-003
283.962, 61.62297, 2.8549e-003
284.462, 61.74884, 2.8626e-003
284.962, 61.87503, 2.8708e-003
285.462, 62.00107, 2.8785e-003
285.962, 62.12713, 2.8861e-003
286.462, 62.25342, 2.8944e-003
286.962, 62.37957, 2.9022e-003
287.462, 62.50600, 2.9097e-003
287.962, 62.63244, 2.9181e-003
288.462, 62.75904, 2.9255e-003
288.962, 62.88572, 2.9335e-003
289.462, 63.01227, 2.9414e-003
289.962, 63.13901, 2.9489e-003
290.462, 63.26567, 2.9567e-003
290.962, 63.39235, 2.9647e-003
291.462, 63.51929, 2.9726e-003
291.962, 63.64624, 2.9803e-003
292.462, 63.77330, 2.9881e-003
292.962, 63.90058, 2.9958e-003
293.462, 64.02794, 3.0033e-003
293.962, 64.15530, 3.0113e-003
294.462, 64.28246, 3.0191e-003
294.962, 64.40967, 3.0268e-003
295.462, 64.53676, 3.0346e-003
295.962, 64.66383, 3.0421e-003
296.462, 64.79094, 3.0503e-003
296.962, 64.91804, 3.0579e-003
297.462, 65.04546, 3.0655e-003
297.962, 65.17315, 3.0733e-003
298.462, 65.30099, 3.0811e-003
298.962, 65.42894, 3.0887e-003
299.462, 65.55724, 3.0966e-003
299.962, 65.68578, 3.1043e-003
300.462, 65.81423, 3.1124e-003
300.962, 65.94284, 3.1198e-003
301.462, 66.07156, 3.1276e-003
301.962, 66.20035, 3.1354e-003
302.462, 66.32909, 3.1436e-003
302.962, 66.45789, 3.1513e-003
303.462, 66.58681, 3.1588e-003
303.962, 66.71535, 3.1665e-003
304.462, 66.84415, 3.1742e-003
304.962, 66.97300, 3.1822e-003
305.462, 67.10184, 3.1893e-003
305.962, 67.23073, 3.1971e-003
306.462, 67.35995, 3.2051e-003
306.962, 67.48923, 3.2128e-003
307.462, 67.61855, 3.2203e-003
307.962, 67.74799, 3.2280e-003
308.462, 67.87736, 3.2350e-003
308.962, 68.00683, 3.2424e-003
309.462, 68.13633, 3.2501e-003
309.962, 68.26593, 3.2578e-003
310.462, 68.39545, 3.2648e-003
310.962, 68.52508, 3.2727e-003
311.462, 68.65503, 3.2802e-003
311.962, 68.78517, 3.2874e-003
312.462, 68.91521, 3.2947e-003
312.962, 69.04564, 3.3017e-003
313.462, 69.17608, 3.3092e-003
313.962, 69.30676, 3.3162e-003
314.462, 69.43727, 3.3237e-003
314.962, 69.56778, 3.3307e-003
315.462, 69.69820, 3.3376e-003
315.962, 69.82879, 3.3451e-003
316.462, 69.95964, 3.3516e-003
316.962, 70.09023, 3.3582e-003
317.462, 70.22158, 3.3646e-003
317.962, 70.35327, 3.3718e-003
318.462, 70.48500, 3.3785e-003
318.962, 70.61665, 3.3854e-003
319.462, 70.74836, 3.3921e-003
319.962, 70.87996, 3.3989e-003
320.462, 71.01154, 3.4057e-003
320.962, 71.14310, 3.4125e-003
321.462, 71.27502, 3.4197e-003
321.962, 71.40714, 3.4263e-003
322.462, 71.53940, 3.4339e-003
322.962, 71.67182, 3.4403e-003
323.462, 71.80426, 3.4472e-003
323.962, 71.93657, 3.4546e-003
324.462, 72.06875, 3.4621e-003
324.962, 72.20101, 3.4695e-003
325.462, 72.33326, 3.4770e-003
325.962, 72.46598, 3.4843e-003
326.462, 72.59878, 3.4908e-003
326.962, 72.73168, 3.4977e-003
327.462, 72.86470, 3.5047e-003
327.962, 72.99783, 3.5115e-003
328.462, 73.13092, 3.5186e-003
328.962, 73.26377, 3.5263e-003
329.462, 73.39670, 3.5330e-003
329.962, 73.52975, 3.5403e-003
330.462, 73.66288, 3.5469e-003
330.962, 73.79642, 3.5531e-003
331.462, 73.93005, 3.5600e-003
331.962, 74.06395, 3.5671e-003
332.462, 74.19762, 3.5744e-003
332.962, 74.33104, 3.5811e-003
333.462, 74.46442, 3.5880e-003
333.962, 74.59807, 3.5952e-003
334.462, 74.73182, 3.6022e-003
334.962, 74.86571, 3.6089e-003
335.462, 74.99991, 3.6148e-003
335.962, 75.13414, 3.6222e-003
336.462, 75.26817, 3.6295e-003
336.962, 75.40217, 3.6360e-003
337.462, 75.53655, 3.6426e-003
337.962, 75.67132, 3.6493e-003
338.462, 75.80629, 3.6558e-003
338.962, 75.94177, 3.6625e-003
339.462, 76.07767, 3.6689e-003
339.962, 76.21391, 3.6755e-003
340.462, 76.35031, 3.6827e-003
340.962, 76.48708, 3.6886e-003
341.462, 76.62388, 3.6953e-003
341.962, 76.76029, 3.7015e-003
342.462, 76.89684, 3.7087e-003
342.962, 77.03361, 3.7158e-003
343.462, 77.17023, 3.7221e-003
343.962, 77.30697, 3.7291e-003
344.462, 77.44439, 3.7364e-003
344.962, 77.58179, 3.7430e-003
345.462, 77.71930, 3.7504e-003
345.962, 77.85724, 3.7567e-003
346.462, 77.99549, 3.7636e-003
346.962, 78.13328, 3.7714e-003
347.462, 78.27075, 3.7784e-003
347.962, 78.40801, 3.7834e-003
348.462, 78.54497, 3.7904e-003
348.962, 78.68137, 3.7973e-003
349.462, 78.81733, 3.8037e-003
349.962, 78.95334, 3.8101e-003
350.462, 79.08919, 3.8158e-003
350.962, 79.22458, 3.8223e-003
351.462, 79.35972, 3.8272e-003
351.962, 79.49455, 3.8333e-003
352.462, 79.62863, 3.8377e-003
352.962, 79.76215, 3.8437e-003
353.462, 79.89496, 3.8500e-003
353.962, 80.02731, 3.8562e-003
354.462, 80.15919, 3.8608e-003
354.962, 80.29081, 3.8674e-003
355.462, 80.42208, 3.8741e-003
355.962, 80.55311, 3.8782e-003
356.462, 80.68394, 3.8845e-003
356.962, 80.81506, 3.8914e-003
357.462, 80.94587, 3.8982e-003
357.962, 81.07683, 3.9025e-003
358.462, 81.20785, 3.9091e-003
358.962, 81.33910, 3.9157e-003
359.462, 81.47025, 3.9198e-003
359.962, 81.60172, 3.9263e-003
360.462, 81.73366, 3.9315e-003
360.962, 81.86567, 3.9373e-003
361.462, 81.99773, 3.9441e-003
361.962, 82.13041, 3.9483e-003
362.462, 82.26318, 3.9552e-003
362.962, 82.39605, 3.9614e-003
363.462, 82.52908, 3.9665e-003
363.962, 82.66251, 3.9725e-003
364.462, 82.79614, 3.9798e-003
364.962, 82.92982, 3.9841e-003
365.462, 83.06373, 3.9909e-003
365.962, 83.19831, 3.9964e-003
366.462, 83.33289, 4.0023e-003
366.962, 83.46779, 4.0088e-003
367.462, 83.60306, 4.0150e-003
367.962, 83.73871, 4.0199e-003
368.462, 83.87428, 4.0264e-003
368.962, 84.01020, 4.0330e-003
369.462, 84.14612, 4.0377e-003
369.962, 84.28218, 4.0447e-003
370.462, 84.41876, 4.0518e-003
370.962, 84.55551, 4.0563e-003
371.462, 84.69253, 4.0628e-003
371.962, 84.82965, 4.0698e-003
372.462, 84.96715, 4.0743e-003
372.962, 85.10467, 4.0813e-003
373.462, 85.24260, 4.0881e-003
373.962, 85.38078, 4.0921e-003
374.462, 85.51917, 4.0991e-003
374.962, 85.65800, 4.1042e-003
375.462, 85.79723, 4.1111e-003
375.962, 85.93630, 4.1179e-003
376.462, 86.07557, 4.1224e-003
376.962, 86.21477, 4.1288e-003
377.462, 86.35383, 4.1360e-003
377.962, 86.49268, 4.1407e-003
378.462, 86.63202, 4.1471e-003
378.962, 86.77124, 4.1546e-003
379.462, 86.91064, 4.1559e-003
379.962, 87.05048, 4.1630e-003
380.462, 87.19052, 4.1704e-003
380.962, 87.33021, 4.1773e-003
381.462, 87.47035, 4.1815e-003
381.962, 87.61082, 4.1879e-003
382.462, 87.75153, 4.1955e-003
382.962, 87.89230, 4.1998e-003
383.462, 88.03351, 4.2066e-003
383.962, 88.17531, 4.2146e-003
384.462, 88.31741, 4.2058e-003
384.962, 88.45949, 4.2129e-003
385.462, 88.60225, 4.2205e-003
385.962, 88.74504, 4.2279e-003
386.462, 88.88757, 4.2354e-003
386.962, 89.02997, 4.2424e-003
387.462, 89.17277, 4.2477e-003
387.962, 89.31550, 4.2548e-003
388.462, 89.45858, 4.2609e-003
388.962, 89.60176, 4.2659e-003
389.462, 89.74507, 4.2731e-003
389.962, 89.88832, 4.2805e-003
390.462, 90.03172, 4.2853e-003
390.962, 90.17540, 4.2921e-003
391.462, 90.31920, 4.2972e-003
391.962, 90.46331, 4.3034e-003
392.462, 90.60776, 4.3107e-003
392.962, 90.75213, 4.3159e-003
393.462, 90.89623, 4.3212e-003
393.962, 91.04021, 4.3281e-003
394.462, 91.18419, 4.3325e-003
394.962, 91.32829, 4.3401e-003
395.462, 91.47260, 4.3463e-003
395.962, 91.61729, 4.3526e-003
396.462, 91.76225, 4.3588e-003
396.962, 91.90725, 4.3650e-003
397.462, 92.05222, 4.3714e-003
397.962, 92.19716, 4.3775e-003
398.462, 92.34197, 4.3797e-003
398.962, 92.48713, 4.3865e-003
399.462, 92.63233, 4.3925e-003
399.962, 92.77770, 4.3984e-003
400.462, 92.92326, 4.4055e-003
400.962, 93.06887, 4.4104e-003
401.462, 93.21451, 4.4171e-003
401.962, 93.36040, 4.4245e-003
402.462, 93.50632, 4.4287e-003
402.962, 93.65249, 4.4357e-003
403.462, 93.79873, 4.4407e-003
403.962, 93.94474, 4.4471e-003
404.462, 94.09057, 4.4541e-003
404.962, 94.23642, 4.4598e-003
405.462, 94.38243, 4.4641e-003
405.962, 94.52874, 4.4711e-003
406.462, 94.67552, 4.4767e-003
406.962, 94.82255, 4.4833e-003
407.462, 94.96989, 4.4900e-003
407.962, 95.11707, 4.4963e-003
408.462, 95.26442, 4.5026e-003
408.962, 95.41175, 4.5091e-003
409.462, 95.55967, 4.5127e-003
409.962, 95.70748, 4.5180e-003
410.462, 95.85571, 4.5256e-003
410.962, 96.00379, 4.5323e-003
411.462, 96.15145, 4.5373e-003
411.962, 96.29875, 4.5442e-003
412.462, 96.44608, 4.5509e-003
412.962, 96.59339, 4.5558e-003
413.462, 96.74083, 4.5627e-003
413.962, 96.88851, 4.5672e-003
414.462, 97.03661, 4.5740e-003
414.962, 97.18484, 4.5806e-003
415.462, 97.33289, 4.5872e-003
415.962, 97.48106, 4.5935e-003
416.462, 97.62933, 4.5998e-003
416.962, 97.77717, 4.6054e-003
417.462, 97.92500, 4.6100e-003
417.962, 98.07324, 4.6164e-003
418.462, 98.22168, 4.6214e-003
418.962, 98.37001, 4.6277e-003
419.462, 98.51867, 4.6341e-003
419.962, 98.66731, 4.6411e-003
420.462, 98.81579, 4.6473e-003
420.962, 98.96423, 4.6529e-003
421.462, 99.11276, 4.6585e-003
421.962, 99.26147, 4.6641e-003
422.462, 99.41019, 4.6704e-003
422.962, 99.55910, 4.6761e-003
423.462, 99.70808, 4.6807e-003
423.962, 99.85719, 4.6878e-003
424.462,100.006, 4.6945e-003
424.962,100.155, 4.7013e-003
425.462,100.304, 4.7075e-003
425.962,100.454, 4.7133e-003
426.462,100.603, 4.7189e-003
426.962,100.753, 4.7254e-003
427.462,100.902, 4.7308e-003
427.962,101.052, 4.7361e-003
428.462,101.202, 4.7427e-003
428.962,101.352, 4.7494e-003
429.462,101.502, 4.7557e-003
429.962,101.652, 4.7620e-003
430.462,101.802, 4.7370e-003
430.962,101.952, 4.7192e-003