File: data/8.1mm/fmt100sBr2-10.0mm.csv
#EXPORTTYPE:           ,DATA ALL
#FILE:                 ,fmt100Brun2.ngb-sle
#FORMAT:               ,NETZSCH5
#FTYPE:                ,ANSI
#IDENTITY:             ,fmt100Brun2
#DECIMAL:              ,POINT
#SEPARATOR:            ,COMMA
#MTYPE:                ,DIL
#INSTRUMENT:           ,NETZSCH DIL 402C
#PROJECT:              ,feldspar
#DATE/TIME:            ,8/18/2019 9:49:26 AM (UTC-5)
#CORR. FILE:           ,
#TEMPCAL:              ,TCALZERO.TMX
#LABORATORY:           ,Mineral Physics
#OPERATOR:             ,PAG
#REMARK:               ,bare, norm start, for oligoclase fmt tall, reheated
#SAMPLE:               ,fmt100B
#SAMPLE LENGTH /mm:    ,10.018
#MATERIAL:             ,sapphire stnd
#MEASMODE:             ,Standard Expansion
#PURGE GAS 1:          ,ARGON
#FLOW RATE 1 /(ml/min):,75
#M.RANGE /µm:          ,500
#CORR. CODE:           ,010
#RANGE:                ,20.0°C/3.0(K/min)/1000.0°C
#SEGMENT:              ,S1/1
#SEG. 1:               ,20.0°C/3.0(K/min)/1000.0°C

##Temp./°C,Time/min,dL/Lo
  21.54300,  0.00000, 1.5723e-005
  22.54300,  4.40666,-4.9960e-006
  23.54300,  4.88286,-1.7022e-005
  24.54300,  5.23626,-2.7780e-005
  25.54300,  5.53618,-3.6780e-005
  26.54300,  5.80408,-4.3507e-005
  27.54300,  6.05231,-4.9739e-005
  28.54300,  6.28677,-5.3729e-005
  29.54300,  6.51377,-5.6823e-005
  30.54300,  6.73459,-5.9181e-005
  31.54300,  6.95144,-6.0582e-005
  32.54300,  7.16494,-6.3073e-005
  33.54300,  7.37567,-6.1806e-005
  34.54300,  7.58504,-5.9658e-005
  35.54300,  7.79333,-5.6972e-005
  36.54300,  8.00165,-5.3714e-005
  37.54300,  8.20985,-4.9745e-005
  38.54300,  8.41875,-4.5235e-005
  39.54300,  8.62727,-4.0392e-005
  40.54300,  8.83535,-3.4786e-005
  41.54300,  9.04178,-2.8843e-005
  42.54300,  9.24738,-2.2645e-005
  43.54300,  9.45186,-1.5928e-005
  44.54300,  9.65547,-9.5832e-006
  45.54300,  9.85809,-3.3360e-006
  46.54300, 10.05941, 3.3338e-006
  47.54300, 10.25910, 1.0122e-005
  48.54300, 10.45793, 1.7649e-005
  49.54300, 10.65471, 2.4487e-005
  50.54300, 10.85006, 3.1768e-005
  51.54300, 11.04403, 3.9364e-005
  52.54300, 11.23600, 4.6391e-005
  53.54300, 11.42766, 5.3624e-005
  54.54300, 11.61851, 6.1480e-005
  55.54300, 11.80907, 6.9462e-005
  56.54300, 11.99902, 7.7725e-005
  57.54300, 12.18803, 8.6007e-005
  58.54300, 12.37661, 9.5132e-005
  59.54300, 12.56460, 1.0398e-004
  60.54300, 12.75284, 1.1289e-004
  61.54300, 12.94136, 1.2226e-004
  62.54300, 13.13019, 1.3145e-004
  63.54300, 13.31881, 1.4100e-004
  64.54300, 13.50733, 1.5079e-004
  65.54300, 13.69584, 1.6064e-004
  66.54300, 13.88449, 1.7082e-004
  67.54300, 14.07383, 1.8109e-004
  68.54300, 14.26327, 1.9159e-004
  69.54300, 14.45300, 2.0195e-004
  70.54300, 14.64258, 2.1282e-004
  71.54300, 14.83215, 2.2333e-004
  72.54300, 15.02198, 2.3414e-004
  73.54300, 15.21196, 2.4444e-004
  74.54300, 15.40260, 2.5561e-004
  75.54300, 15.59333, 2.6672e-004
  76.54300, 15.78408, 2.7770e-004
  77.54300, 15.97482, 2.8930e-004
  78.54300, 16.16532, 3.0037e-004
  79.54300, 16.35634, 3.1221e-004
  80.54300, 16.54817, 3.2341e-004
  81.54300, 16.74063, 3.3498e-004
  82.54300, 16.93397, 3.4645e-004
  83.54300, 17.12769, 3.5836e-004
  84.54300, 17.32150, 3.6970e-004
  85.54300, 17.51528, 3.8203e-004
  86.54300, 17.70911, 3.9379e-004
  87.54300, 17.90348, 4.0583e-004
  88.54300, 18.09815, 4.1770e-004
  89.54300, 18.29359, 4.2983e-004
  90.54300, 18.48944, 4.4163e-004
  91.54300, 18.68553, 4.5405e-004
  92.54300, 18.88179, 4.6619e-004
  93.54300, 19.07833, 4.7849e-004
  94.54300, 19.27549, 4.9095e-004
  95.54300, 19.47358, 5.0352e-004
  96.54300, 19.67232, 5.1533e-004
  97.54300, 19.87141, 5.2814e-004
  98.54300, 20.07070, 5.4054e-004
  99.54300, 20.26994, 5.5305e-004
 100.543, 20.46926, 5.6551e-004
 101.543, 20.66858, 5.7816e-004
 102.543, 20.86784, 5.9063e-004
 103.543, 21.06787, 6.0339e-004
 104.543, 21.26838, 6.1542e-004
 105.543, 21.46933, 6.2844e-004
 106.543, 21.67053, 6.4127e-004
 107.543, 21.87185, 6.5383e-004
 108.543, 22.07356, 6.6682e-004
 109.543, 22.27556, 6.7912e-004
 110.543, 22.47806, 6.9178e-004
 111.543, 22.68080, 7.0448e-004
 112.543, 22.88410, 7.1751e-004
 113.543, 23.08806, 7.2997e-004
 114.543, 23.29222, 7.4279e-004
 115.543, 23.49665, 7.5576e-004
 116.543, 23.70131, 7.6832e-004
 117.543, 23.90610, 7.8139e-004
 118.543, 24.11116, 7.9395e-004
 119.543, 24.31649, 8.0718e-004
 120.543, 24.52188, 8.1996e-004
 121.543, 24.72749, 8.3301e-004
 122.543, 24.93343, 8.4576e-004
 123.543, 25.13987, 8.5879e-004
 124.543, 25.34653, 8.7140e-004
 125.543, 25.55336, 8.8450e-004
 126.543, 25.76033, 8.9766e-004
 127.543, 25.96752, 9.1042e-004
 128.543, 26.17505, 9.2348e-004
 129.543, 26.38269, 9.3668e-004
 130.543, 26.59028, 9.4970e-004
 131.543, 26.79808, 9.6300e-004
 132.543, 27.00635, 9.7585e-004
 133.543, 27.21543, 9.8885e-004
 134.543, 27.42475, 1.0017e-003
 135.543, 27.63450, 1.0152e-003
 136.543, 27.84438, 1.0283e-003
 137.543, 28.05498, 1.0411e-003
 138.543, 28.26586, 1.0545e-003
 139.543, 28.47691, 1.0678e-003
 140.543, 28.68795, 1.0806e-003
 141.543, 28.89882, 1.0939e-003
 142.543, 29.10964, 1.1072e-003
 143.543, 29.32046, 1.1204e-003
 144.543, 29.53156, 1.1337e-003
 145.543, 29.74292, 1.1466e-003
 146.543, 29.95477, 1.1604e-003
 147.543, 30.16673, 1.1736e-003
 148.543, 30.37947, 1.1870e-003
 149.543, 30.59251, 1.2002e-003
 150.543, 30.80587, 1.2133e-003
 151.543, 31.02013, 1.2268e-003
 152.543, 31.23458, 1.2402e-003
 153.543, 31.44923, 1.2534e-003
 154.543, 31.66361, 1.2670e-003
 155.543, 31.87737, 1.2803e-003
 156.543, 32.09173, 1.2941e-003
 157.543, 32.30582, 1.3074e-003
 158.543, 32.52101, 1.3208e-003
 159.543, 32.73662, 1.3345e-003
 160.543, 32.95259, 1.3475e-003
 161.543, 33.16860, 1.3611e-003
 162.543, 33.38499, 1.3746e-003
 163.543, 33.60152, 1.3879e-003
 164.543, 33.81859, 1.4014e-003
 165.543, 34.03556, 1.4148e-003
 166.543, 34.25285, 1.4285e-003
 167.543, 34.47008, 1.4417e-003
 168.543, 34.68752, 1.4550e-003
 169.543, 34.90503, 1.4689e-003
 170.543, 35.12324, 1.4823e-003
 171.543, 35.34241, 1.4959e-003
 172.543, 35.56217, 1.5093e-003
 173.543, 35.78222, 1.5225e-003
 174.543, 36.00156, 1.5367e-003
 175.543, 36.22101, 1.5502e-003
 176.543, 36.44027, 1.5633e-003
 177.543, 36.66003, 1.5771e-003
 178.543, 36.88001, 1.5907e-003
 179.543, 37.10024, 1.6042e-003
 180.543, 37.32065, 1.6179e-003
 181.543, 37.54168, 1.6311e-003
 182.543, 37.76333, 1.6448e-003
 183.543, 37.98542, 1.6584e-003
 184.543, 38.20740, 1.6717e-003
 185.543, 38.42925, 1.6858e-003
 186.543, 38.65136, 1.6992e-003
 187.543, 38.87361, 1.7125e-003
 188.543, 39.09602, 1.7263e-003
 189.543, 39.31853, 1.7398e-003
 190.543, 39.54156, 1.7535e-003
 191.543, 39.76500, 1.7670e-003
 192.543, 39.98836, 1.7803e-003
 193.543, 40.21150, 1.7941e-003
 194.543, 40.43464, 1.8082e-003
 195.543, 40.65876, 1.8214e-003
 196.543, 40.88334, 1.8350e-003
 197.543, 41.10889, 1.8489e-003
 198.543, 41.33438, 1.8625e-003
 199.543, 41.56012, 1.8755e-003
 200.543, 41.78588, 1.8891e-003
 201.543, 42.01204, 1.9027e-003
 202.543, 42.23875, 1.9165e-003
 203.543, 42.46561, 1.9301e-003
 204.543, 42.69264, 1.9436e-003
 205.543, 42.92048, 1.9572e-003
 206.543, 43.14848, 1.9709e-003
 207.543, 43.37671, 1.9843e-003
 208.543, 43.60479, 1.9978e-003
 209.543, 43.83356, 2.0116e-003
 210.543, 44.06249, 2.0251e-003
 211.543, 44.29123, 2.0390e-003
 212.543, 44.52007, 2.0523e-003
 213.543, 44.74910, 2.0658e-003
 214.543, 44.97885, 2.0795e-003
 215.543, 45.20874, 2.0932e-003
 216.543, 45.43894, 2.1068e-003
 217.543, 45.66954, 2.1208e-003
 218.543, 45.90056, 2.1337e-003
 219.543, 46.13173, 2.1476e-003
 220.543, 46.36322, 2.1613e-003
 221.543, 46.59463, 2.1750e-003
 222.543, 46.82712, 2.1887e-003
 223.543, 47.05994, 2.2023e-003
 224.543, 47.29348, 2.2158e-003
 225.543, 47.52665, 2.2295e-003
 226.543, 47.76001, 2.2433e-003
 227.543, 47.99339, 2.2568e-003
 228.543, 48.22704, 2.2704e-003
 229.543, 48.46130, 2.2839e-003
 230.543, 48.69586, 2.2976e-003
 231.543, 48.93097, 2.3115e-003
 232.543, 49.16619, 2.3249e-003
 233.543, 49.40183, 2.3385e-003
 234.543, 49.63773, 2.3522e-003
 235.543, 49.87371, 2.3658e-003
 236.543, 50.11008, 2.3798e-003
 237.543, 50.34621, 2.3932e-003
 238.543, 50.58297, 2.4072e-003
 239.543, 50.81952, 2.4208e-003
 240.543, 51.05681, 2.4347e-003
 241.543, 51.29424, 2.4483e-003
 242.543, 51.53229, 2.4620e-003
 243.543, 51.77048, 2.4756e-003
 244.543, 52.00930, 2.4891e-003
 245.543, 52.24816, 2.5033e-003
 246.543, 52.48753, 2.5168e-003
 247.543, 52.72687, 2.5306e-003
 248.543, 52.96728, 2.5440e-003
 249.543, 53.20793, 2.5574e-003
 250.543, 53.44880, 2.5719e-003
 251.543, 53.68945, 2.5853e-003
 252.543, 53.93058, 2.5987e-003
 253.543, 54.17224, 2.6124e-003
 254.543, 54.41409, 2.6260e-003
 255.543, 54.65616, 2.6400e-003
 256.543, 54.89847, 2.6535e-003
 257.543, 55.14147, 2.6670e-003
 258.543, 55.38462, 2.6808e-003
 259.543, 55.62832, 2.6946e-003
 260.543, 55.87193, 2.7080e-003
 261.543, 56.11615, 2.7215e-003
 262.543, 56.36045, 2.7349e-003
 263.543, 56.60526, 2.7490e-003
 264.543, 56.84978, 2.7623e-003
 265.543, 57.09436, 2.7762e-003
 266.543, 57.33947, 2.7894e-003
 267.543, 57.58515, 2.8033e-003
 268.543, 57.83146, 2.8170e-003
 269.543, 58.07801, 2.8308e-003
 270.543, 58.32493, 2.8446e-003
 271.543, 58.57243, 2.8578e-003
 272.543, 58.82061, 2.8714e-003
 273.543, 59.06918, 2.8849e-003
 274.543, 59.31811, 2.8989e-003
 275.543, 59.56684, 2.9124e-003
 276.543, 59.81556, 2.9263e-003
 277.543, 60.06502, 2.9398e-003
 278.543, 60.31596, 2.9534e-003
 279.543, 60.56764, 2.9670e-003
 280.543, 60.81811, 2.9810e-003
 281.543, 61.06779, 2.9947e-003
 282.543, 61.31839, 3.0083e-003
 283.543, 61.57027, 3.0215e-003
 284.543, 61.82227, 3.0351e-003
 285.543, 62.07292, 3.0490e-003
 286.543, 62.32366, 3.0626e-003
 287.543, 62.57511, 3.0759e-003
 288.543, 62.82755, 3.0893e-003
 289.543, 63.08046, 3.1026e-003
 290.543, 63.33373, 3.1164e-003
 291.543, 63.58715, 3.1308e-003
 292.543, 63.84061, 3.1441e-003
 293.543, 64.09464, 3.1577e-003
 294.543, 64.34933, 3.1714e-003
 295.543, 64.60476, 3.1850e-003
 296.543, 64.86127, 3.1991e-003
 297.543, 65.11771, 3.2140e-003
 298.543, 65.37447, 3.2275e-003
 299.543, 65.63124, 3.2410e-003
 300.543, 65.88843, 3.2546e-003
 301.543, 66.14616, 3.2692e-003
 302.543, 66.40407, 3.2825e-003
 303.543, 66.66260, 3.2960e-003
 304.543, 66.92035, 3.3091e-003
 305.543, 67.17833, 3.3239e-003
 306.543, 67.43701, 3.3378e-003
 307.543, 67.69553, 3.3510e-003
 308.543, 67.95425, 3.3644e-003
 309.543, 68.21344, 3.3784e-003
 310.543, 68.47333, 3.3924e-003
 311.543, 68.73368, 3.4057e-003
 312.543, 68.99469, 3.4192e-003
 313.543, 69.25564, 3.4328e-003
 314.543, 69.51681, 3.4460e-003
 315.543, 69.77814, 3.4611e-003
 316.543, 70.04093, 3.4744e-003
 317.543, 70.30410, 3.4880e-003
 318.543, 70.56728, 3.5015e-003
 319.543, 70.83060, 3.5151e-003
 320.543, 71.09514, 3.5292e-003
 321.543, 71.36016, 3.5424e-003
 322.543, 71.62552, 3.5557e-003
 323.543, 71.88962, 3.5701e-003
 324.543, 72.15334, 3.5840e-003
 325.543, 72.41721, 3.5966e-003
 326.543, 72.68252, 3.6109e-003
 327.543, 72.94839, 3.6245e-003
 328.543, 73.21497, 3.6376e-003
 329.543, 73.48159, 3.6510e-003
 330.543, 73.74801, 3.6659e-003
 331.543, 74.01469, 3.6794e-003
 332.543, 74.28215, 3.6928e-003
 333.543, 74.55115, 3.7061e-003
 334.543, 74.82018, 3.7194e-003
 335.543, 75.08912, 3.7328e-003
 336.543, 75.35753, 3.7473e-003
 337.543, 75.62646, 3.7604e-003
 338.543, 75.89508, 3.7739e-003
 339.543, 76.16402, 3.7867e-003
 340.543, 76.43367, 3.7998e-003
 341.543, 76.70377, 3.8146e-003
 342.543, 76.97387, 3.8276e-003
 343.543, 77.24407, 3.8415e-003
 344.543, 77.51438, 3.8546e-003
 345.543, 77.78597, 3.8679e-003
 346.543, 78.05820, 3.8819e-003
 347.543, 78.32962, 3.8955e-003
 348.543, 78.60136, 3.9110e-003
 349.543, 78.87435, 3.9241e-003
 350.543, 79.14853, 3.9376e-003
 351.543, 79.42288, 3.9507e-003
 352.543, 79.69630, 3.9638e-003
 353.543, 79.96951, 3.9771e-003
 354.543, 80.24302, 3.9905e-003
 355.543, 80.51828, 4.0045e-003
 356.543, 80.79403, 4.0180e-003
 357.543, 81.07063, 4.0312e-003
 358.543, 81.34726, 4.0458e-003
 359.543, 81.62482, 4.0594e-003
 360.543, 81.90184, 4.0724e-003
 361.543, 82.17927, 4.0857e-003
 362.543, 82.45645, 4.0988e-003
 363.543, 82.73417, 4.1121e-003
 364.543, 83.01205, 4.1269e-003
 365.543, 83.29042, 4.1406e-003
 366.543, 83.56911, 4.1535e-003
 367.543, 83.84809, 4.1681e-003
 368.543, 84.12715, 4.1817e-003
 369.543, 84.40638, 4.1953e-003
 370.543, 84.68614, 4.2096e-003
 371.543, 84.96682, 4.2235e-003
 372.543, 85.24697, 4.2371e-003
 373.543, 85.52699, 4.2502e-003
 374.543, 85.80743, 4.2637e-003
 375.543, 86.08856, 4.2783e-003
 376.543, 86.36940, 4.2914e-003
 377.543, 86.65042, 4.3053e-003
 378.543, 86.93223, 4.3191e-003
 379.543, 87.21448, 4.3327e-003
 380.543, 87.49669, 4.3468e-003
 381.543, 87.77954, 4.3609e-003
 382.543, 88.06415, 4.3741e-003
 383.543, 88.34920, 4.3877e-003
 384.543, 88.63357, 4.4022e-003
 385.543, 88.91739, 4.4165e-003
 386.543, 89.20124, 4.4298e-003
 387.543, 89.48607, 4.4433e-003
 388.543, 89.77117, 4.4567e-003
 389.543, 90.05660, 4.4834e-003
 390.543, 90.34248, 4.4974e-003
 391.543, 90.62881, 4.5111e-003
 392.543, 90.91630, 4.5248e-003
 393.543, 91.20369, 4.5385e-003
 394.543, 91.49111, 4.5520e-003
 395.543, 91.77885, 4.5658e-003
 396.543, 92.06700, 4.5791e-003
 397.543, 92.35531, 4.5932e-003
 398.543, 92.64352, 4.6064e-003
 399.543, 92.93259, 4.6198e-003
 400.543, 93.22198, 4.6332e-003
 401.543, 93.51175, 4.6465e-003
 402.543, 93.80164, 4.6607e-003
 403.543, 94.09151, 4.6732e-003
 404.543, 94.38233, 4.6889e-003
 405.543, 94.67473, 4.7022e-003
 406.543, 94.96767, 4.7162e-003
 407.543, 95.26029, 4.7297e-003
 408.543, 95.55203, 4.7431e-003
 409.543, 95.84373, 4.7570e-003
 410.543, 96.13715, 4.7703e-003
 411.543, 96.43197, 4.7838e-003
 412.543, 96.72630, 4.7971e-003
 413.543, 97.01910, 4.8107e-003
 414.543, 97.31176, 4.8242e-003
 415.543, 97.60568, 4.8373e-003
 416.543, 97.90056, 4.8511e-003
 417.543, 98.19560, 4.8642e-003
 418.543, 98.49051, 4.8773e-003
 419.543, 98.78515, 4.8910e-003
 420.543, 99.08041, 4.9051e-003
 421.543, 99.37588, 4.9177e-003
 422.543, 99.67119, 4.9313e-003
 423.543, 99.96676, 4.9461e-003
 424.543,100.264, 4.9592e-003
 425.543,100.562, 4.9724e-003
 426.543,100.86, 4.9870e-003
 427.543,101.159, 5.0012e-003
 428.543,101.46, 5.0144e-003
 429.543,101.761, 5.0279e-003
 430.543,102.061, 5.0422e-003
 431.543,102.36, 5.0556e-003
 432.543,102.659, 5.0700e-003
 433.543,102.958, 5.0836e-003
 434.543,103.257, 5.0971e-003
 435.543,103.557, 5.1108e-003
 436.543,103.856, 5.1252e-003
 437.543,104.158, 5.1383e-003
 438.543,104.46, 5.1520e-003
 439.543,104.763, 5.1667e-003
 440.543,105.066, 5.1802e-003
 441.543,105.369, 5.1939e-003
 442.543,105.673, 5.2089e-003
 443.543,105.976, 5.2221e-003
 444.543,106.279, 5.2356e-003
 445.543,106.583, 5.2501e-003
 446.543,106.887, 5.2638e-003
 447.543,107.192, 5.2780e-003
 448.543,107.498, 5.2912e-003
 449.543,107.803, 5.3058e-003
 450.543,108.109, 5.3191e-003
 451.543,108.414, 5.3337e-003
 452.543,108.72, 5.3474e-003
 453.543,109.027, 5.3606e-003
 454.543,109.335, 5.3744e-003
 455.543,109.642, 5.3897e-003
 456.543,109.949, 5.4040e-003
 457.543,110.258, 5.4182e-003
 458.543,110.57, 5.4322e-003
 459.543,110.883, 5.4484e-003
 460.543,111.198, 5.4630e-003
 461.543,111.513, 5.4768e-003
 462.543,111.828, 5.4919e-003
 463.543,112.143, 5.5055e-003
 464.543,112.456, 5.5189e-003
 465.543,112.767, 5.5335e-003
 466.543,113.075, 5.5462e-003
 467.543,113.378, 5.5584e-003
 468.543,113.68, 5.5727e-003
 469.543,113.98, 5.5846e-003
 470.543,114.279, 5.5970e-003
 471.543,114.577, 5.6108e-003
 472.543,114.876, 5.6234e-003
 473.543,115.173, 5.6377e-003
 474.543,115.471, 5.6507e-003
 475.543,115.771, 5.6638e-003
 476.543,116.072, 5.6776e-003
 477.543,116.376, 5.6907e-003
 478.543,116.682, 5.7051e-003
 479.543,116.988, 5.7180e-003
 480.543,117.293, 5.7322e-003
 481.543,117.599, 5.7452e-003
 482.543,117.907, 5.7597e-003
 483.543,118.217, 5.7728e-003
 484.543,118.527, 5.7876e-003
 485.543,118.839, 5.8011e-003
 486.543,119.152, 5.8142e-003
 487.543,119.466, 5.8283e-003
 488.543,119.781, 5.8419e-003
 489.543,120.096, 5.8566e-003
 490.543,120.413, 5.8699e-003
 491.543,120.729, 5.8833e-003
 492.543,121.046, 5.8978e-003
 493.543,121.362, 5.9109e-003
 494.543,121.68, 5.9240e-003
 495.543,121.999, 5.9387e-003
 496.543,122.319, 5.9533e-003
 497.543,122.639, 5.9663e-003
 498.543,122.96, 5.9799e-003
 499.543,123.282, 5.9939e-003
 500.543,123.604, 6.0076e-003
 501.543,123.926, 6.0221e-003
 502.543,124.248, 6.0356e-003
 503.543,124.572, 6.0483e-003
 504.543,124.897, 6.0632e-003
 505.543,125.221, 6.0764e-003
 506.543,125.544, 6.0898e-003
 507.543,125.868, 6.1042e-003
 508.543,126.193, 6.1185e-003
 509.543,126.518, 6.1322e-003
 510.543,126.845, 6.1457e-003
 511.543,127.173, 6.1602e-003
 512.543,127.5, 6.1737e-003
 513.543,127.826, 6.1871e-003
 514.543,128.152, 6.2011e-003
 515.543,128.479, 6.2150e-003
 516.543,128.807, 6.2294e-003
 517.543,129.137, 6.2426e-003
 518.543,129.466, 6.2567e-003
 519.543,129.793, 6.2700e-003
 520.543,130.121, 6.2844e-003
 521.543,130.451, 6.2980e-003
 522.543,130.779, 6.3124e-003
 523.543,131.108, 6.3262e-003
 524.543,131.437, 6.3397e-003
 525.543,131.766, 6.3542e-003
 526.543,132.095, 6.3684e-003
 527.543,132.424, 6.3820e-003
 528.543,132.753, 6.3966e-003
 529.543,133.083, 6.4100e-003
 530.543,133.415, 6.4248e-003
 531.543,133.747, 6.4383e-003
 532.543,134.079, 6.4523e-003
 533.543,134.412, 6.4665e-003
 534.543,134.745, 6.4797e-003
 535.543,135.077, 6.4935e-003
 536.543,135.41, 6.5078e-003
 537.543,135.742, 6.5223e-003
 538.543,136.074, 6.5360e-003
 539.543,136.406, 6.5497e-003
 540.543,136.738, 6.5643e-003
 541.543,137.072, 6.5787e-003
 542.543,137.406, 6.5931e-003
 543.543,137.739, 6.6078e-003
 544.543,138.072, 6.6219e-003
 545.543,138.407, 6.6359e-003
 546.543,138.741, 6.6503e-003
 547.543,139.075, 6.6654e-003
 548.543,139.412, 6.6789e-003
 549.543,139.749, 6.6933e-003
 550.543,140.086, 6.7075e-003
 551.543,140.423, 6.7211e-003
 552.543,140.759, 6.7349e-003
 553.543,141.097, 6.7486e-003
 554.543,141.435, 6.7615e-003
 555.543,141.772, 6.7756e-003
 556.543,142.109, 6.7890e-003
 557.543,142.447, 6.8027e-003
 558.543,142.783, 6.8169e-003
 559.543,143.12, 6.8304e-003
 560.543,143.458, 6.8437e-003
 561.543,143.797, 6.8579e-003
 562.543,144.136, 6.8708e-003
 563.543,144.475, 6.8851e-003
 564.543,144.815, 6.8981e-003
 565.543,145.155, 6.9121e-003
 566.543,145.496, 6.9252e-003
 567.543,145.836, 6.9391e-003
 568.543,146.176, 6.9526e-003
 569.543,146.517, 6.9654e-003
 570.543,146.859, 6.9792e-003
 571.543,147.201, 6.9931e-003
 572.543,147.543, 7.0059e-003
 573.543,147.885, 7.0201e-003
 574.543,148.227, 7.0329e-003
 575.543,148.57, 7.0462e-003
 576.543,148.912, 7.0594e-003
 577.543,149.254, 7.0730e-003
 578.543,149.598, 7.0876e-003
 579.543,149.942, 7.1016e-003
 580.543,150.291, 7.1157e-003
 581.543,150.642, 7.1304e-003
 582.543,150.993, 7.1445e-003
 583.543,151.347, 7.1600e-003
 584.543,151.702, 7.1744e-003
 585.543,152.055, 7.1886e-003
 586.543,152.408, 7.2015e-003
 587.543,152.757, 7.2154e-003
 588.543,153.101, 7.2281e-003
 589.543,153.441, 7.2405e-003
 590.543,153.777, 7.2525e-003
 591.543,154.111, 7.2647e-003
 592.543,154.444, 7.2773e-003
 593.543,154.776, 7.2907e-003
 594.543,155.108, 7.3034e-003
 595.543,155.44, 7.3166e-003
 596.543,155.775, 7.3297e-003
 597.543,156.111, 7.3431e-003
 598.543,156.448, 7.3560e-003
 599.543,156.786, 7.3701e-003
 600.543,157.127, 7.3839e-003
 601.543,157.469, 7.3974e-003
 602.543,157.811, 7.4113e-003
 603.543,158.155, 7.4254e-003
 604.543,158.5, 7.4386e-003
 605.543,158.845, 7.4525e-003
 606.543,159.19, 7.4652e-003
 607.543,159.537, 7.4788e-003
 608.543,159.884, 7.4922e-003
 609.543,160.232, 7.5064e-003
 610.543,160.58, 7.5198e-003
 611.543,160.93, 7.5332e-003
 612.543,161.28, 7.5465e-003
 613.543,161.63, 7.5607e-003
 614.543,161.98, 7.5738e-003
 615.543,162.331, 7.5867e-003
 616.543,162.683, 7.6000e-003
 617.543,163.035, 7.6140e-003
 618.543,163.388, 7.6282e-003
 619.543,163.742, 7.6410e-003
 620.543,164.096, 7.6540e-003
 621.543,164.451, 7.6693e-003
 622.543,164.806, 7.6822e-003
 623.543,165.161, 7.6966e-003
 624.543,165.517, 7.7096e-003
 625.543,165.874, 7.7229e-003
 626.543,166.232, 7.7370e-003
 627.543,166.589, 7.7506e-003
 628.543,166.945, 7.7631e-003
 629.543,167.302, 7.7778e-003
 630.543,167.659, 7.7907e-003
 631.543,168.017, 7.8050e-003
 632.543,168.374, 7.8193e-003
 633.543,168.732, 7.8323e-003
 634.543,169.09, 7.8467e-003
 635.543,169.447, 7.8591e-003
 636.543,169.805, 7.8733e-003
 637.543,170.165, 7.8871e-003
 638.543,170.524, 7.9006e-003
 639.543,170.882, 7.9140e-003
 640.543,171.243, 7.9282e-003
 641.543,171.604, 7.9411e-003
 642.543,171.964, 7.9551e-003
 643.543,172.324, 7.9681e-003
 644.543,172.684, 7.9815e-003
 645.543,173.044, 7.9949e-003
 646.543,173.404, 8.0088e-003
 647.543,173.768, 8.0225e-003
 648.543,174.13, 8.0354e-003
 649.543,174.492, 8.0488e-003
 650.543,174.853, 8.0615e-003
 651.543,175.215, 8.0756e-003
 652.543,175.576, 8.0889e-003
 653.543,175.938, 8.1018e-003
 654.543,176.299, 8.1147e-003
 655.543,176.661, 8.1274e-003
 656.543,177.024, 8.1406e-003
 657.543,177.388, 8.1534e-003
 658.543,177.752, 8.1680e-003
 659.543,178.115, 8.1805e-003
 660.543,178.479, 8.1941e-003
 661.543,178.843, 8.2069e-003
 662.543,179.207, 8.2207e-003
 663.543,179.572, 8.2335e-003
 664.543,179.936, 8.2473e-003
 665.543,180.3, 8.2599e-003
 666.543,180.665, 8.2743e-003
 667.543,181.031, 8.2866e-003
 668.543,181.397, 8.2999e-003
 669.543,181.765, 8.3138e-003
 670.543,182.133, 8.3269e-003
 671.543,182.502, 8.3399e-003
 672.543,182.872, 8.3541e-003
 673.543,183.243, 8.3674e-003
 674.543,183.616, 8.3817e-003
 675.543,183.989, 8.3959e-003
 676.543,184.366, 8.4096e-003
 677.543,184.747, 8.4246e-003
 678.543,185.129, 8.4390e-003
 679.543,185.51, 8.4533e-003
 680.543,185.891, 8.4657e-003
 681.543,186.267, 8.4795e-003
 682.543,186.638, 8.4924e-003
 683.543,187.006, 8.5042e-003
 684.543,187.373, 8.5174e-003
 685.543,187.736, 8.5295e-003
 686.543,188.097, 8.5423e-003
 687.543,188.458, 8.5547e-003
 688.543,188.821, 8.5676e-003
 689.543,189.186, 8.5816e-003
 690.543,189.552, 8.5943e-003
 691.543,189.921, 8.6075e-003
 692.543,190.29, 8.6197e-003
 693.543,190.66, 8.6336e-003
 694.543,191.031, 8.6465e-003
 695.543,191.404, 8.6600e-003
 696.543,191.778, 8.6733e-003
 697.543,192.151, 8.6858e-003
 698.543,192.526, 8.6989e-003
 699.543,192.901, 8.7115e-003
 700.543,193.277, 8.7252e-003
 701.543,193.655, 8.7376e-003
 702.543,194.032, 8.7507e-003
 703.543,194.409, 8.7634e-003
 704.543,194.787, 8.7768e-003
 705.543,195.165, 8.7895e-003
 706.543,195.543, 8.8022e-003
 707.543,195.92, 8.8142e-003
 708.543,196.299, 8.8285e-003
 709.543,196.678, 8.8411e-003
 710.543,197.057, 8.8549e-003
 711.543,197.436, 8.8678e-003
 712.543,197.815, 8.8808e-003
 713.543,198.196, 8.8940e-003
 714.543,198.578, 8.9072e-003
 715.543,198.962, 8.9208e-003
 716.543,199.349, 8.9359e-003
 717.543,199.741, 8.9507e-003
 718.543,200.137, 8.9659e-003
 719.543,200.533, 8.9800e-003
 720.543,200.927, 8.9937e-003
 721.543,201.318, 9.0068e-003
 722.543,201.703, 9.0196e-003
 723.543,202.083, 9.0330e-003
 724.543,202.459, 9.0458e-003
 725.543,202.832, 9.0589e-003
 726.543,203.203, 9.0716e-003
 727.543,203.572, 9.0849e-003
 728.543,203.943, 9.0972e-003
 729.543,204.314, 9.1098e-003
 730.543,204.686, 9.1236e-003
 731.543,205.058, 9.1368e-003
 732.543,205.433, 9.1497e-003
 733.543,205.81, 9.1631e-003
 734.543,206.186, 9.1765e-003
 735.543,206.56, 9.1896e-003
 736.543,206.936, 9.2031e-003
 737.543,207.312, 9.2159e-003
 738.543,207.689, 9.2288e-003
 739.543,208.068, 9.2427e-003
 740.543,208.449, 9.2555e-003
 741.543,208.829, 9.2698e-003
 742.543,209.212, 9.2825e-003
 743.543,209.593, 9.2967e-003
 744.543,209.973, 9.3098e-003
 745.543,210.356, 9.3227e-003
 746.543,210.74, 9.3358e-003
 747.543,211.122, 9.3490e-003
 748.543,211.506, 9.3625e-003
 749.543,211.891, 9.3746e-003
 750.543,212.277, 9.3892e-003
 751.543,212.663, 9.4017e-003
 752.543,213.048, 9.4160e-003
 753.543,213.432, 9.4287e-003
 754.543,213.817, 9.4417e-003
 755.543,214.203, 9.4561e-003
 756.543,214.589, 9.4694e-003
 757.543,214.973, 9.4826e-003
 758.543,215.36, 9.4955e-003
 759.543,215.747, 9.5087e-003
 760.543,216.133, 9.5215e-003
 761.543,216.52, 9.5353e-003
 762.543,216.906, 9.5486e-003
 763.543,217.292, 9.5613e-003
 764.543,217.677, 9.5755e-003
 765.543,218.062, 9.5882e-003
 766.543,218.449, 9.6018e-003
 767.543,218.837, 9.6145e-003
 768.543,219.225, 9.6284e-003
 769.543,219.613, 9.6415e-003
 770.543,220.002, 9.6544e-003
 771.543,220.39, 9.6677e-003
 772.543,220.778, 9.6814e-003
 773.543,221.165, 9.6945e-003
 774.543,221.551, 9.7074e-003
 775.543,221.938, 9.7202e-003
 776.543,222.324, 9.7339e-003
 777.543,222.711, 9.7467e-003
 778.543,223.099, 9.7595e-003
 779.543,223.487, 9.7726e-003
 780.543,223.876, 9.7852e-003
 781.543,224.267, 9.7998e-003
 782.543,224.666, 9.8142e-003
 783.543,225.08, 9.8286e-003
 784.543,225.507, 9.8433e-003
 785.543,225.944, 9.8586e-003
 786.543,226.383, 9.8729e-003
 787.543,226.823, 9.8879e-003
 788.543,227.266, 9.9019e-003
 789.543,227.709, 9.9150e-003
 790.543,228.141, 9.9279e-003
 791.543,228.558, 9.9396e-003
 792.543,228.963, 9.9512e-003
 793.543,229.364, 9.9650e-003
 794.543,229.765, 9.9778e-003
 795.543,230.17, 9.9916e-003
 796.543,230.582, 1.0005e-002
 797.543,231, 1.0018e-002
 798.543,231.424, 1.0031e-002
 799.543,231.849, 1.0045e-002
 800.543,232.272, 1.0057e-002
 801.543,232.694, 1.0069e-002
 802.543,233.116, 1.0081e-002
 803.543,233.536, 1.0094e-002
 804.543,233.957, 1.0107e-002
 805.543,234.375, 1.0120e-002
 806.543,234.796, 1.0133e-002
 807.543,235.218, 1.0145e-002
 808.543,235.635, 1.0156e-002
 809.543,236.046, 1.0168e-002
 810.543,236.451, 1.0179e-002
 811.543,236.854, 1.0192e-002
 812.543,237.254, 1.0204e-002
 813.543,237.653, 1.0216e-002
 814.543,238.052, 1.0228e-002
 815.543,238.454, 1.0241e-002
 816.543,238.858, 1.0254e-002
 817.543,239.261, 1.0266e-002
 818.543,239.665, 1.0278e-002
 819.543,240.068, 1.0290e-002
 820.543,240.471, 1.0303e-002
 821.543,240.874, 1.0314e-002
 822.543,241.273, 1.0326e-002
 823.543,241.669, 1.0339e-002
 824.543,242.062, 1.0352e-002
 825.543,242.454, 1.0364e-002
 826.543,242.846, 1.0376e-002
 827.543,243.238, 1.0388e-002
 828.543,243.632, 1.0402e-002
 829.543,244.024, 1.0414e-002
 830.543,244.413, 1.0426e-002
 831.543,244.8, 1.0438e-002
 832.543,245.186, 1.0450e-002
 833.543,245.574, 1.0464e-002
 834.543,245.964, 1.0476e-002
 835.543,246.353, 1.0489e-002
 836.543,246.742, 1.0500e-002
 837.543,247.127, 1.0513e-002
 838.543,247.51, 1.0526e-002
 839.543,247.896, 1.0539e-002
 840.543,248.282, 1.0551e-002
 841.543,248.668, 1.0564e-002
 842.543,249.056, 1.0578e-002
 843.543,249.447, 1.0591e-002
 844.543,249.837, 1.0603e-002
 845.543,250.222, 1.0615e-002
 846.543,250.61, 1.0631e-002
 847.543,251.005, 1.0644e-002
 848.543,251.407, 1.0658e-002
 849.543,251.812, 1.0672e-002
 850.543,252.213, 1.0685e-002
 851.543,252.611, 1.0696e-002
 852.543,253.002, 1.0710e-002
 853.543,253.385, 1.0722e-002
 854.543,253.765, 1.0734e-002
 855.543,254.144, 1.0747e-002
 856.543,254.523, 1.0759e-002
 857.543,254.902, 1.0771e-002
 858.543,255.283, 1.0784e-002
 859.543,255.663, 1.0795e-002
 860.543,256.04, 1.0809e-002
 861.543,256.417, 1.0821e-002
 862.543,256.796, 1.0833e-002
 863.543,257.176, 1.0846e-002
 864.543,257.556, 1.0858e-002
 865.543,257.936, 1.0870e-002
 866.543,258.317, 1.0882e-002
 867.543,258.697, 1.0896e-002
 868.543,259.079, 1.0908e-002
 869.543,259.462, 1.0920e-002
 870.543,259.844, 1.0932e-002
 871.543,260.226, 1.0944e-002
 872.543,260.609, 1.0956e-002
 873.543,260.996, 1.0970e-002
 874.543,261.385, 1.0982e-002
 875.543,261.775, 1.0994e-002
 876.543,262.166, 1.1008e-002
 877.543,262.559, 1.1020e-002
 878.543,262.952, 1.1032e-002
 879.543,263.346, 1.1045e-002
 880.543,263.741, 1.1059e-002
 881.543,264.14, 1.1071e-002
 882.543,264.544, 1.1084e-002
 883.543,264.949, 1.1096e-002
 884.543,265.354, 1.1109e-002
 885.543,265.756, 1.1123e-002
 886.543,266.157, 1.1135e-002
 887.543,266.558, 1.1147e-002
 888.543,266.957, 1.1159e-002
 889.543,267.354, 1.1171e-002
 890.543,267.75, 1.1186e-002
 891.543,268.147, 1.1199e-002
 892.543,268.546, 1.1211e-002
 893.543,268.947, 1.1223e-002
 894.543,269.349, 1.1239e-002
 895.543,269.75, 1.1251e-002
 896.543,270.149, 1.1263e-002
 897.543,270.546, 1.1276e-002
 898.543,270.946, 1.1290e-002
 899.543,271.351, 1.1303e-002
 900.543,271.761, 1.1316e-002
 901.543,272.179, 1.1332e-002
 902.543,272.604, 1.1346e-002
 903.543,273.03, 1.1358e-002
 904.543,273.457, 1.1374e-002
 905.543,273.887, 1.1386e-002
 906.543,274.322, 1.1402e-002
 907.543,274.758, 1.1414e-002
 908.543,275.196, 1.1427e-002
 909.543,275.642, 1.1439e-002
 910.543,276.105, 1.1456e-002
 911.543,276.608, 1.1470e-002
 912.543,277.17, 1.1486e-002
 913.543,277.753, 1.1500e-002
 914.543,278.26, 1.1510e-002
 915.543,278.695, 1.1519e-002
 916.543,279.102, 1.1533e-002
 917.543,279.496, 1.1543e-002
 918.543,279.884, 1.1554e-002
 919.543,280.269, 1.1565e-002
 920.543,280.656, 1.1577e-002
 921.543,281.047, 1.1592e-002
 922.543,281.441, 1.1603e-002
 923.543,281.836, 1.1615e-002
 924.543,282.234, 1.1629e-002
 925.543,282.632, 1.1640e-002
 926.543,283.031, 1.1652e-002
 927.543,283.43, 1.1665e-002
 928.543,283.829, 1.1677e-002
 929.543,284.225, 1.1689e-002
 930.543,284.622, 1.1703e-002
 931.543,285.019, 1.1714e-002
 932.543,285.416, 1.1729e-002
 933.543,285.811, 1.1740e-002
 934.543,286.202, 1.1752e-002
 935.543,286.588, 1.1765e-002
 936.543,286.972, 1.1776e-002
 937.543,287.357, 1.1788e-002
 938.543,287.742, 1.1804e-002
 939.543,288.129, 1.1815e-002
 940.543,288.513, 1.1830e-002
 941.543,288.897, 1.1841e-002
 942.543,289.277, 1.1856e-002
 943.543,289.655, 1.1867e-002
 944.543,290.036, 1.1880e-002
 945.543,290.421, 1.1892e-002
 946.543,290.809, 1.1906e-002
 947.543,291.201, 1.1919e-002
 948.543,291.598, 1.1931e-002
 949.543,291.995, 1.1945e-002
 950.543,292.393, 1.1957e-002
 951.543,292.785, 1.1970e-002
 952.543,293.157, 1.1981e-002
 953.543,293.512, 1.1992e-002
 954.543,293.866, 1.2006e-002
 955.543,294.228, 1.2018e-002
 956.543,294.609, 1.2031e-002
 957.543,295.01, 1.2047e-002
 958.543,295.411, 1.2058e-002
 959.543,295.802, 1.2070e-002
 960.543,296.18, 1.2082e-002
 961.543,296.54, 1.2093e-002
 962.543,296.883, 1.2102e-002
 963.543,297.221, 1.2115e-002
 964.543,297.566, 1.2126e-002
 965.543,297.929, 1.2140e-002
 966.543,298.306, 1.2153e-002
 967.543,298.689, 1.2165e-002
 968.543,299.074, 1.2179e-002
 969.543,299.462, 1.2192e-002
 970.543,299.857, 1.2205e-002
 971.543,300.254, 1.2218e-002
 972.543,300.633, 1.2228e-002
 973.543,300.988, 1.2239e-002
 974.543,301.327, 1.2250e-002
 975.543,301.667, 1.2262e-002
 976.543,302.018, 1.2275e-002
 977.543,302.385, 1.2289e-002
 978.543,302.759, 1.2302e-002
 979.543,303.136, 1.2313e-002
 980.543,303.511, 1.2325e-002
 981.543,303.881, 1.2335e-002
 982.543,304.246, 1.2347e-002
 983.543,304.613, 1.2360e-002
 984.543,304.986, 1.2371e-002
 985.543,305.365, 1.2384e-002
 986.543,305.743, 1.2395e-002
 987.543,306.118, 1.2407e-002
 988.543,306.492, 1.2418e-002
 989.543,306.857, 1.2431e-002
 990.543,307.215, 1.2443e-002
 991.543,307.575, 1.2454e-002
 992.543,307.945, 1.2466e-002
 993.543,308.325, 1.2480e-002
 994.543,308.703, 1.2492e-002
 995.543,309.075, 1.2505e-002
 996.543,309.452, 1.2517e-002
 997.543,309.842, 1.2530e-002
 998.543,310.241, 1.2546e-002
 999.543,310.651, 1.2559e-002
1000.54,311.066, 1.2572e-002
1001.54,311.477, 1.2584e-002
1002.54,311.87, 1.2596e-002
1003.54,312.246, 1.2607e-002
1004.54,312.613, 1.2619e-002
1005.54,312.972, 1.2630e-002
1006.54,313.33, 1.2642e-002
1007.54,313.689, 1.2653e-002
1008.54,314.047, 1.2664e-002
1009.54,314.405, 1.2675e-002
1010.54,314.765, 1.2688e-002
1011.54,315.133, 1.2701e-002
1012.54,315.505, 1.2712e-002
1013.54,315.877, 1.2724e-002
1014.54,316.237, 1.2736e-002
1015.54,316.586, 1.2746e-002
1016.54,316.948, 1.2759e-002
1017.54,317.331, 1.2773e-002
1018.54,317.721, 1.2785e-002
1019.54,318.106, 1.2797e-002