File: data/8.1mm/moon000s3r2-10.1mm.csv
#EXPORTTYPE:           ,DATA ALL
#FILE:                 ,moonstoneS3rn2.ngb-sle
#FORMAT:               ,NETZSCH5
#FTYPE:                ,ANSI
#IDENTITY:             ,moonstone 3 rerun
#DECIMAL:              ,POINT
#SEPARATOR:            ,COMMA
#MTYPE:                ,DIL
#INSTRUMENT:           ,NETZSCH DIL 402C
#PROJECT:              ,feldspar
#DATE/TIME:            ,9/16/2019 3:22:44 PM (UTC-5)
#CORR. FILE:           ,
#TEMPCAL:              ,TCALZERO.TMX
#LABORATORY:           ,Mineral Physics
#OPERATOR:             ,PAG
#REMARK:               ,bare, norm start, for oligoclase, moonstone #3 short and reaonably thin. rectancgle, large up , reheat
#SAMPLE:               ,moonstone 3 run#2
#SAMPLE LENGTH /mm:    ,10.090
#MATERIAL:             ,sapphire stnd
#MEASMODE:             ,Standard Expansion
#PURGE GAS 1:          ,ARGON
#FLOW RATE 1 /(ml/min):,75
#M.RANGE /µm:          ,500
#CORR. CODE:           ,010
#RANGE:                ,20.0°C/3.0(K/min)/414.0°C
#SEGMENT:              ,S1/1
#SEG. 1:               ,20.0°C/3.0(K/min)/414.0°C

##Temp./°C,Time/min,dL/Lo
 22.84300,  0.00000, 2.4570e-005
 22.82600,  0.08667, 2.3408e-005
 22.80500,  0.17333, 2.2601e-005
 22.77900,  0.26000, 2.1895e-005
 22.76100,  0.34667, 2.0961e-005
 22.74400,  0.43333, 2.0195e-005
 22.71900,  0.52000, 1.9484e-005
 22.69400,  0.60667, 1.8686e-005
 22.67500,  0.69333, 1.7645e-005
 22.65200,  0.78000, 1.6961e-005
 22.63400,  0.86667, 1.6312e-005
 22.60800,  0.95333, 1.5444e-005
 22.58500,  1.04000, 1.4661e-005
 22.56300,  1.12667, 1.3686e-005
 22.55900,  1.21333, 1.3298e-005
 22.54000,  1.30000, 1.2518e-005
 22.51900,  1.38667, 1.1575e-005
 22.50100,  1.47333, 1.1124e-005
 22.48100,  1.56000, 1.0510e-005
 22.45900,  1.64667, 9.7214e-006
 22.43500,  1.73333, 8.6455e-006
 22.41500,  1.82000, 7.4372e-006
 22.39500,  1.90667, 6.8730e-006
 22.37200,  1.99333, 6.2007e-006
 22.35200,  2.08000, 5.8843e-006
 22.33300,  2.16667, 4.9804e-006
 22.31800,  2.25333, 4.3282e-006
 22.28600,  2.34000, 3.7402e-006
 22.26800,  2.42667, 3.0788e-006
 22.25800,  2.51333, 2.3384e-006
 22.25400,  2.60000, 1.2568e-006
 22.23200,  2.68667, 5.7926e-007
 22.21700,  2.77333,-5.3141e-007
 22.19700,  2.86000,-1.2318e-006
 22.19200,  2.94667,-2.3701e-006
 22.18800,  3.03333,-3.2535e-006
 22.18700,  3.12000,-4.8216e-006
 22.19500,  3.20667,-5.6812e-006
 22.22000,  3.29333,-6.5927e-006
 22.24500,  3.38000,-7.7272e-006
 22.28200,  3.46667,-9.2963e-006
 22.33200,  3.55333,-1.0574e-005
 22.38600,  3.64000,-1.2592e-005
 22.45900,  3.72667,-1.4857e-005
 22.53400,  3.81333,-1.6799e-005
 22.62700,  3.90000,-1.8463e-005
 22.73500,  3.98667,-2.0293e-005
 22.85600,  4.07333,-2.2042e-005
 22.98100,  4.16000,-2.4072e-005
 23.13900,  4.24667,-2.5829e-005
 23.29300,  4.33333,-2.7713e-005
 23.47200,  4.42000,-2.9394e-005
 23.66200,  4.50667,-3.1529e-005
 23.87600,  4.59333,-3.2971e-005
 24.09000,  4.68000,-3.4451e-005
 24.33400,  4.76667,-3.5827e-005
 24.59300,  4.85333,-3.7517e-005
 24.85100,  4.94000,-3.8780e-005
 25.12200,  5.02667,-3.9739e-005
 25.40500,  5.11333,-4.0562e-005
 25.71300,  5.20000,-4.1181e-005
 26.03100,  5.28667,-4.1703e-005
 26.35200,  5.37333,-4.2439e-005
 26.69200,  5.46000,-4.2158e-005
 27.03500,  5.54667,-4.2227e-005
 27.38300,  5.63333,-4.2161e-005
 27.75800,  5.72000,-4.1467e-005
 28.13600,  5.80667,-4.0998e-005
 28.50600,  5.89333,-4.0314e-005
 28.88200,  5.98000,-3.9041e-005
 29.28300,  6.06667,-3.7700e-005
 29.67700,  6.15333,-3.5739e-005
 30.08600,  6.24000,-3.3930e-005
 30.48900,  6.32667,-3.1966e-005
 30.88400,  6.41333,-2.9600e-005
 31.30100,  6.50000,-2.6914e-005
 31.71700,  6.58667,-2.4135e-005
 32.14000,  6.67333,-2.0959e-005
 32.56200,  6.76000,-1.7901e-005
 32.97800,  6.84667,-1.4080e-005
 33.40400,  6.93333,-1.0088e-005
 33.83200,  7.02000,-6.4396e-006
 34.27000,  7.10667,-2.3472e-006
 34.68500,  7.19333, 2.0511e-006
 35.11300,  7.28000, 6.4196e-006
 35.54700,  7.36667, 1.1253e-005
 35.97500,  7.45333, 1.6552e-005
 36.40400,  7.54000, 2.1784e-005
 36.83400,  7.62667, 2.6677e-005
 37.25700,  7.71333, 3.1966e-005
 37.69000,  7.80000, 3.7129e-005
 38.11500,  7.88667, 4.2372e-005
 38.54700,  7.97333, 4.7318e-005
 38.97100,  8.06000, 5.2456e-005
 39.39700,  8.14667, 5.7793e-005
 39.83400,  8.23333, 6.3422e-005
 40.25100,  8.32000, 6.8918e-005
 40.69300,  8.40667, 7.4819e-005
 41.11400,  8.49333, 8.1237e-005
 41.54800,  8.58000, 8.7118e-005
 41.98000,  8.66667, 9.3183e-005
 42.40900,  8.75333, 9.9103e-005
 42.83600,  8.84000, 1.0531e-004
 43.26300,  8.92667, 1.1166e-004
 43.69100,  9.01333, 1.1876e-004
 44.12600,  9.10000, 1.2569e-004
 44.55600,  9.18667, 1.3246e-004
 44.98100,  9.27333, 1.3909e-004
 45.41900,  9.36000, 1.4561e-004
 45.85200,  9.44667, 1.5261e-004
 46.28900,  9.53333, 1.5992e-004
 46.72300,  9.62000, 1.6735e-004
 47.17200,  9.70667, 1.7497e-004
 47.60900,  9.79333, 1.8174e-004
 48.05400,  9.88000, 1.8898e-004
 48.48400,  9.96667, 1.9595e-004
 48.93400, 10.05333, 2.0312e-004
 49.38600, 10.14000, 2.1014e-004
 49.83300, 10.22667, 2.1729e-004
 50.27500, 10.31333, 2.2423e-004
 50.73100, 10.40000, 2.3171e-004
 51.18400, 10.48667, 2.3849e-004
 51.63300, 10.57333, 2.4688e-004
 52.08800, 10.66000, 2.5485e-004
 52.54000, 10.74667, 2.6224e-004
 52.98600, 10.83333, 2.7063e-004
 53.43800, 10.92000, 2.7859e-004
 53.89900, 11.00667, 2.8728e-004
 54.36700, 11.09333, 2.9558e-004
 54.81300, 11.18000, 3.0423e-004
 55.28800, 11.26667, 3.1274e-004
 55.75200, 11.35333, 3.2149e-004
 56.21100, 11.44000, 3.3025e-004
 56.67100, 11.52667, 3.3894e-004
 57.14000, 11.61333, 3.4695e-004
 57.60500, 11.70000, 3.5590e-004
 58.06700, 11.78667, 3.6422e-004
 58.53400, 11.87333, 3.7335e-004
 59.00100, 11.96000, 3.8267e-004
 59.46400, 12.04667, 3.9181e-004
 59.92700, 12.13333, 4.0140e-004
 60.39400, 12.22000, 4.0927e-004
 60.86200, 12.30667, 4.1818e-004
 61.32900, 12.39333, 4.2778e-004
 61.78800, 12.48000, 4.3687e-004
 62.25500, 12.56667, 4.4645e-004
 62.70300, 12.65333, 4.5613e-004
 63.17900, 12.74000, 4.6598e-004
 63.64200, 12.82667, 4.7555e-004
 64.10700, 12.91333, 4.8578e-004
 64.57200, 13.00000, 4.9480e-004
 65.03600, 13.08667, 5.0333e-004
 65.49700, 13.17333, 5.1276e-004
 65.96000, 13.26000, 5.2112e-004
 66.42400, 13.34667, 5.3048e-004
 66.89500, 13.43333, 5.3908e-004
 67.35300, 13.52000, 5.4857e-004
 67.80600, 13.60667, 5.5803e-004
 68.27600, 13.69333, 5.6751e-004
 68.74000, 13.78000, 5.7759e-004
 69.19300, 13.86667, 5.8786e-004
 69.64600, 13.95333, 5.9676e-004
 70.11300, 14.04000, 6.0707e-004
 70.57000, 14.12667, 6.1749e-004
 71.03500, 14.21333, 6.2711e-004
 71.48500, 14.30000, 6.3758e-004
 71.95300, 14.38667, 6.4761e-004
 72.41300, 14.47333, 6.5796e-004
 72.87500, 14.56000, 6.6793e-004
 73.33500, 14.64667, 6.7776e-004
 73.79500, 14.73333, 6.8807e-004
 74.24900, 14.82000, 6.9878e-004
 74.71500, 14.90667, 7.0964e-004
 75.17300, 14.99333, 7.1956e-004
 75.62300, 15.08000, 7.3014e-004
 76.08300, 15.16667, 7.4023e-004
 76.53400, 15.25333, 7.4951e-004
 76.98600, 15.34000, 7.5883e-004
 77.45200, 15.42667, 7.6760e-004
 77.91300, 15.51333, 7.7710e-004
 78.36700, 15.60000, 7.8691e-004
 78.82200, 15.68667, 7.9585e-004
 79.26500, 15.77333, 8.0492e-004
 79.72700, 15.86000, 8.1386e-004
 80.18000, 15.94667, 8.2340e-004
 80.63000, 16.03333, 8.3159e-004
 81.07900, 16.12000, 8.3968e-004
 81.52900, 16.20667, 8.4822e-004
 81.97800, 16.29333, 8.5726e-004
 82.43300, 16.38000, 8.6680e-004
 82.88000, 16.46667, 8.7659e-004
 83.32800, 16.55333, 8.8540e-004
 83.78000, 16.64000, 8.9472e-004
 84.23000, 16.72667, 9.0380e-004
 84.68000, 16.81333, 9.1225e-004
 85.12300, 16.90000, 9.2186e-004
 85.57100, 16.98667, 9.3099e-004
 86.01600, 17.07333, 9.3988e-004
 86.46300, 17.16000, 9.4888e-004
 86.91400, 17.24667, 9.5745e-004
 87.35700, 17.33333, 9.6598e-004
 87.79800, 17.42000, 9.7484e-004
 88.24300, 17.50667, 9.8380e-004
 88.69000, 17.59333, 9.9366e-004
 89.13800, 17.68000, 1.0017e-003
 89.58400, 17.76667, 1.0094e-003
 90.02800, 17.85333, 1.0180e-003
 90.47200, 17.94000, 1.0253e-003
 90.91000, 18.02667, 1.0331e-003
 91.35100, 18.11333, 1.0418e-003
 91.79300, 18.20000, 1.0483e-003
 92.24200, 18.28667, 1.0559e-003
 92.68200, 18.37333, 1.0647e-003
 93.12700, 18.46000, 1.0731e-003
 93.56500, 18.54667, 1.0813e-003
 94.00500, 18.63333, 1.0909e-003
 94.43700, 18.72000, 1.0998e-003
 94.87800, 18.80667, 1.1089e-003
 95.31600, 18.89333, 1.1164e-003
 95.76100, 18.98000, 1.1217e-003
 96.19400, 19.06667, 1.1284e-003
 96.63700, 19.15333, 1.1348e-003
 97.07600, 19.24000, 1.1410e-003
 97.51900, 19.32667, 1.1465e-003
 97.95000, 19.41333, 1.1525e-003
 98.38600, 19.50000, 1.1612e-003
 98.80900, 19.58667, 1.1699e-003
 99.26300, 19.67333, 1.1803e-003
 99.69600, 19.76000, 1.1884e-003
100.128, 19.84667, 1.1980e-003
100.561, 19.93333, 1.2075e-003
100.99, 20.02000, 1.2173e-003
101.428, 20.10667, 1.2269e-003
101.854, 20.19333, 1.2366e-003
102.277, 20.28000, 1.2457e-003
102.711, 20.36667, 1.2551e-003
103.15, 20.45333, 1.2645e-003
103.584, 20.54000, 1.2739e-003
104.007, 20.62667, 1.2836e-003
104.44, 20.71333, 1.2930e-003
104.857, 20.80000, 1.3018e-003
105.293, 20.88667, 1.3103e-003
105.73, 20.97333, 1.3192e-003
106.153, 21.06000, 1.3292e-003
106.589, 21.14667, 1.3368e-003
107.011, 21.23333, 1.3396e-003
107.444, 21.32000, 1.3131e-003
107.869, 21.40667, 1.2466e-003
108.301, 21.49333, 1.2385e-003
108.73, 21.58000, 1.2441e-003
109.153, 21.66667, 1.2475e-003
109.581, 21.75333, 1.2524e-003
110.007, 21.84000, 1.2582e-003
110.433, 21.92667, 1.2640e-003
110.86, 22.01333, 1.2691e-003
111.278, 22.10000, 1.2764e-003
111.706, 22.18667, 1.2823e-003
112.129, 22.27333, 1.2855e-003
112.561, 22.36000, 1.2922e-003
112.985, 22.44667, 1.3000e-003
113.408, 22.53333, 1.3077e-003
113.837, 22.62000, 1.3151e-003
114.258, 22.70667, 1.3231e-003
114.689, 22.79333, 1.3306e-003
115.106, 22.88000, 1.3385e-003
115.527, 22.96667, 1.3463e-003
115.941, 23.05333, 1.3545e-003
116.367, 23.14000, 1.3627e-003
116.793, 23.22667, 1.3704e-003
117.217, 23.31333, 1.3787e-003
117.637, 23.40000, 1.3866e-003
118.059, 23.48667, 1.3953e-003
118.477, 23.57333, 1.4031e-003
118.9, 23.66000, 1.4115e-003
119.319, 23.74667, 1.4194e-003
119.741, 23.83333, 1.4282e-003
120.161, 23.92000, 1.4362e-003
120.567, 24.00667, 1.4446e-003
120.983, 24.09333, 1.4528e-003
121.398, 24.18000, 1.4614e-003
121.821, 24.26667, 1.4705e-003
122.238, 24.35333, 1.4789e-003
122.648, 24.44000, 1.4875e-003
123.071, 24.52667, 1.4967e-003
123.489, 24.61333, 1.5055e-003
123.917, 24.70000, 1.5147e-003
124.333, 24.78667, 1.5236e-003
124.754, 24.87333, 1.5328e-003
125.173, 24.96000, 1.5412e-003
125.579, 25.04667, 1.5507e-003
125.999, 25.13333, 1.5599e-003
126.421, 25.22000, 1.5693e-003
126.835, 25.30667, 1.5787e-003
127.249, 25.39333, 1.5880e-003
127.66, 25.48000, 1.5970e-003
128.074, 25.56667, 1.6068e-003
128.489, 25.65333, 1.6162e-003
128.914, 25.74000, 1.6253e-003
129.322, 25.82667, 1.6345e-003
129.74, 25.91333, 1.6429e-003
130.151, 26.00000, 1.6522e-003
130.57, 26.08667, 1.6620e-003
130.981, 26.17333, 1.6705e-003
131.393, 26.26000, 1.6795e-003
131.81, 26.34667, 1.6887e-003
132.216, 26.43333, 1.6982e-003
132.629, 26.52000, 1.7068e-003
133.042, 26.60667, 1.7163e-003
133.456, 26.69333, 1.7252e-003
133.863, 26.78000, 1.7346e-003
134.276, 26.86667, 1.7437e-003
134.696, 26.95333, 1.7526e-003
135.104, 27.04000, 1.7620e-003
135.514, 27.12667, 1.7715e-003
135.934, 27.21333, 1.7809e-003
136.347, 27.30000, 1.7893e-003
136.755, 27.38667, 1.7989e-003
137.162, 27.47333, 1.8047e-003
137.569, 27.56000, 1.8153e-003
137.98, 27.64667, 1.8230e-003
138.386, 27.73333, 1.8314e-003
138.797, 27.82000, 1.8406e-003
139.206, 27.90667, 1.8504e-003
139.612, 27.99333, 1.8592e-003
140.024, 28.08000, 1.8684e-003
140.426, 28.16667, 1.8774e-003
140.832, 28.25333, 1.8866e-003
141.245, 28.34000, 1.8964e-003
141.652, 28.42667, 1.9055e-003
142.054, 28.51333, 1.9145e-003
142.463, 28.60000, 1.9232e-003
142.863, 28.68667, 1.9328e-003
143.269, 28.77333, 1.9417e-003
143.675, 28.86000, 1.9508e-003
144.082, 28.94667, 1.9596e-003
144.49, 29.03333, 1.9690e-003
144.885, 29.12000, 1.9779e-003
145.289, 29.20667, 1.9874e-003
145.693, 29.29333, 1.9973e-003
146.111, 29.38000, 2.0068e-003
146.513, 29.46667, 2.0166e-003
146.924, 29.55333, 2.0265e-003
147.326, 29.64000, 2.0359e-003
147.729, 29.72667, 2.0454e-003
148.139, 29.81333, 2.0540e-003
148.542, 29.90000, 2.0638e-003
148.941, 29.98667, 2.0725e-003
149.343, 30.07333, 2.0813e-003
149.749, 30.16000, 2.0906e-003
150.152, 30.24667, 2.1004e-003
150.564, 30.33333, 2.1094e-003
150.961, 30.42000, 2.1182e-003
151.369, 30.50667, 2.1277e-003
151.765, 30.59333, 2.1368e-003
152.168, 30.68000, 2.1453e-003
152.569, 30.76667, 2.1546e-003
152.965, 30.85333, 2.1635e-003
153.369, 30.94000, 2.1727e-003
153.762, 31.02667, 2.1813e-003
154.169, 31.11333, 2.1912e-003
154.563, 31.20000, 2.2007e-003
154.964, 31.28667, 2.2100e-003
155.369, 31.37333, 2.2188e-003
155.768, 31.46000, 2.2288e-003
156.167, 31.54667, 2.2386e-003
156.566, 31.63333, 2.2487e-003
156.952, 31.72000, 2.2586e-003
157.362, 31.80667, 2.2685e-003
157.755, 31.89333, 2.2784e-003
158.154, 31.98000, 2.2872e-003
158.559, 32.06667, 2.2967e-003
158.954, 32.15333, 2.3069e-003
159.355, 32.24000, 2.3171e-003
159.751, 32.32667, 2.3269e-003
160.153, 32.41333, 2.3362e-003
160.56, 32.50000, 2.3462e-003
160.947, 32.58667, 2.3560e-003
161.347, 32.67333, 2.3661e-003
161.742, 32.76000, 2.3761e-003
162.142, 32.84667, 2.3857e-003
162.54, 32.93333, 2.3947e-003
162.936, 33.02000, 2.4038e-003
163.329, 33.10667, 2.4122e-003
163.73, 33.19333, 2.4212e-003
164.125, 33.28000, 2.4300e-003
164.527, 33.36667, 2.4397e-003
164.919, 33.45333, 2.4487e-003
165.311, 33.54000, 2.4580e-003
165.714, 33.62667, 2.4674e-003
166.108, 33.71333, 2.4771e-003
166.5, 33.80000, 2.4876e-003
166.903, 33.88667, 2.4976e-003
167.296, 33.97333, 2.5079e-003
167.696, 34.06000, 2.5181e-003
168.084, 34.14667, 2.5277e-003
168.475, 34.23333, 2.5376e-003
168.861, 34.32000, 2.5471e-003
169.264, 34.40667, 2.5562e-003
169.66, 34.49333, 2.5651e-003
170.049, 34.58000, 2.5739e-003
170.44, 34.66667, 2.5830e-003
170.834, 34.75333, 2.5922e-003
171.234, 34.84000, 2.6008e-003
171.611, 34.92667, 2.6106e-003
172.015, 35.01333, 2.6200e-003
172.409, 35.10000, 2.6300e-003
172.797, 35.18667, 2.6397e-003
173.191, 35.27333, 2.6499e-003
173.576, 35.36000, 2.6601e-003
173.964, 35.44667, 2.6701e-003
174.352, 35.53333, 2.6802e-003
174.745, 35.62000, 2.6906e-003
175.136, 35.70667, 2.7011e-003
175.534, 35.79333, 2.7117e-003
175.921, 35.88000, 2.7213e-003
176.308, 35.96667, 2.7308e-003
176.696, 36.05333, 2.7397e-003
177.093, 36.14000, 2.7500e-003
177.483, 36.22667, 2.7603e-003
177.87, 36.31333, 2.7696e-003
178.263, 36.40000, 2.7802e-003
178.651, 36.48667, 2.7903e-003
179.045, 36.57333, 2.8001e-003
179.426, 36.66000, 2.8100e-003
179.813, 36.74667, 2.8203e-003
180.203, 36.83333, 2.8309e-003
180.604, 36.92000, 2.8413e-003
180.989, 37.00667, 2.8508e-003
181.371, 37.09333, 2.8605e-003
181.758, 37.18000, 2.8711e-003
182.14, 37.26667, 2.8808e-003
182.521, 37.35333, 2.8910e-003
182.917, 37.44000, 2.9012e-003
183.3, 37.52667, 2.9110e-003
183.683, 37.61333, 2.9214e-003
184.07, 37.70000, 2.9322e-003
184.46, 37.78667, 2.9421e-003
184.844, 37.87333, 2.9523e-003
185.236, 37.96000, 2.9624e-003
185.612, 38.04667, 2.9722e-003
186.003, 38.13333, 2.9824e-003
186.393, 38.22000, 2.9928e-003
186.769, 38.30667, 3.0027e-003
187.152, 38.39333, 3.0130e-003
187.547, 38.48000, 3.0229e-003
187.929, 38.56667, 3.0325e-003
188.316, 38.65333, 3.0431e-003
188.705, 38.74000, 3.0532e-003
189.095, 38.82667, 3.0633e-003
189.489, 38.91333, 3.0733e-003
189.867, 39.00000, 3.0833e-003
190.254, 39.08667, 3.0935e-003
190.639, 39.17333, 3.1038e-003
191.021, 39.26000, 3.1132e-003
191.406, 39.34667, 3.1231e-003
191.783, 39.43333, 3.1331e-003
192.178, 39.52000, 3.1436e-003
192.564, 39.60667, 3.1538e-003
192.95, 39.69333, 3.1640e-003
193.325, 39.78000, 3.1733e-003
193.711, 39.86667, 3.1837e-003
194.094, 39.95333, 3.1939e-003
194.469, 40.04000, 3.2033e-003
194.847, 40.12667, 3.2130e-003
195.231, 40.21333, 3.2228e-003
195.609, 40.30000, 3.2329e-003
195.989, 40.38667, 3.2427e-003
196.376, 40.47333, 3.2524e-003
196.756, 40.56000, 3.2626e-003
197.131, 40.64667, 3.2724e-003
197.515, 40.73333, 3.2823e-003
197.88, 40.82000, 3.2927e-003
198.268, 40.90667, 3.3027e-003
198.644, 40.99333, 3.3122e-003
199.028, 41.08000, 3.3216e-003
199.406, 41.16667, 3.3319e-003
199.79, 41.25333, 3.3421e-003
200.164, 41.34000, 3.3519e-003
200.551, 41.42667, 3.3618e-003
200.93, 41.51333, 3.3716e-003
201.311, 41.60000, 3.3816e-003
201.688, 41.68667, 3.3914e-003
202.072, 41.77333, 3.4011e-003
202.45, 41.86000, 3.4100e-003
202.83, 41.94667, 3.4192e-003
203.206, 42.03333, 3.4284e-003
203.579, 42.12000, 3.4377e-003
203.968, 42.20667, 3.4465e-003
204.348, 42.29333, 3.4565e-003
204.722, 42.38000, 3.4659e-003
205.1, 42.46667, 3.4756e-003
205.476, 42.55333, 3.4857e-003
205.856, 42.64000, 3.4954e-003
206.239, 42.72667, 3.5052e-003
206.607, 42.81333, 3.5151e-003
206.988, 42.90000, 3.5250e-003
207.365, 42.98667, 3.5353e-003
207.741, 43.07333, 3.5446e-003
208.114, 43.16000, 3.5543e-003
208.489, 43.24667, 3.5646e-003
208.864, 43.33333, 3.5737e-003
209.243, 43.42000, 3.5836e-003
209.616, 43.50667, 3.5913e-003
209.992, 43.59333, 3.6002e-003
210.366, 43.68000, 3.6085e-003
210.739, 43.76667, 3.6178e-003
211.118, 43.85333, 3.6273e-003
211.487, 43.94000, 3.6372e-003
211.865, 44.02667, 3.6464e-003
212.235, 44.11333, 3.6564e-003
212.615, 44.20000, 3.6659e-003
212.981, 44.28667, 3.6752e-003
213.347, 44.37333, 3.6847e-003
213.722, 44.46000, 3.6929e-003
214.093, 44.54667, 3.7021e-003
214.47, 44.63333, 3.7115e-003
214.839, 44.72000, 3.7207e-003
215.214, 44.80667, 3.7305e-003
215.589, 44.89333, 3.7398e-003
215.95, 44.98000, 3.7501e-003
216.328, 45.06667, 3.7592e-003
216.703, 45.15333, 3.7688e-003
217.068, 45.24000, 3.7778e-003
217.439, 45.32667, 3.7863e-003
217.81, 45.41333, 3.7946e-003
218.177, 45.50000, 3.8032e-003
218.55, 45.58667, 3.8112e-003
218.926, 45.67333, 3.8198e-003
219.288, 45.76000, 3.8284e-003
219.658, 45.84667, 3.8365e-003
220.031, 45.93333, 3.8464e-003
220.404, 46.02000, 3.8563e-003
220.769, 46.10667, 3.8654e-003
221.142, 46.19333, 3.8743e-003
221.519, 46.28000, 3.8825e-003
221.878, 46.36667, 3.8906e-003
222.244, 46.45333, 3.8993e-003
222.614, 46.54000, 3.9079e-003
222.98, 46.62667, 3.9172e-003
223.351, 46.71333, 3.9263e-003
223.721, 46.80000, 3.9363e-003
224.091, 46.88667, 3.9460e-003
224.457, 46.97333, 3.9553e-003
224.818, 47.06000, 3.9652e-003
225.19, 47.14667, 3.9750e-003
225.551, 47.23333, 3.9845e-003
225.92, 47.32000, 3.9941e-003
226.289, 47.40667, 4.0044e-003
226.654, 47.49333, 4.0132e-003
227.018, 47.58000, 4.0230e-003
227.386, 47.66667, 4.0323e-003
227.759, 47.75333, 4.0421e-003
228.122, 47.84000, 4.0518e-003
228.489, 47.92667, 4.0613e-003
228.854, 48.01333, 4.0712e-003
229.217, 48.10000, 4.0809e-003
229.584, 48.18667, 4.0901e-003
229.949, 48.27333, 4.0991e-003
230.313, 48.36000, 4.1092e-003
230.673, 48.44667, 4.1188e-003
231.042, 48.53333, 4.1289e-003
231.407, 48.62000, 4.1383e-003
231.767, 48.70667, 4.1476e-003
232.127, 48.79333, 4.1569e-003
232.491, 48.88000, 4.1668e-003
232.855, 48.96667, 4.1759e-003
233.216, 49.05333, 4.1856e-003
233.582, 49.14000, 4.1953e-003
233.946, 49.22667, 4.2053e-003
234.307, 49.31333, 4.2149e-003
234.672, 49.40000, 4.2237e-003
235.03, 49.48667, 4.2336e-003
235.399, 49.57333, 4.2426e-003
235.755, 49.66000, 4.2523e-003
236.12, 49.74667, 4.2621e-003
236.48, 49.83333, 4.2721e-003
236.839, 49.92000, 4.2808e-003
237.204, 50.00667, 4.2907e-003
237.566, 50.09333, 4.2998e-003
237.93, 50.18000, 4.3096e-003
238.288, 50.26667, 4.3194e-003
238.651, 50.35333, 4.3285e-003
239.015, 50.44000, 4.3379e-003
239.372, 50.52667, 4.3474e-003
239.731, 50.61333, 4.3574e-003
240.094, 50.70000, 4.3664e-003
240.45, 50.78667, 4.3763e-003
240.814, 50.87333, 4.3853e-003
241.169, 50.96000, 4.3952e-003
241.527, 51.04667, 4.4045e-003
241.886, 51.13333, 4.4144e-003
242.246, 51.22000, 4.4234e-003
242.608, 51.30667, 4.4336e-003
242.972, 51.39333, 4.4424e-003
243.331, 51.48000, 4.4519e-003
243.693, 51.56667, 4.4613e-003
244.049, 51.65333, 4.4707e-003
244.406, 51.74000, 4.4804e-003
244.762, 51.82667, 4.4893e-003
245.129, 51.91333, 4.4990e-003
245.479, 52.00000, 4.5081e-003
245.837, 52.08667, 4.5176e-003
246.19, 52.17333, 4.5261e-003
246.551, 52.26000, 4.5361e-003
246.9, 52.34667, 4.5460e-003
247.265, 52.43333, 4.5553e-003
247.614, 52.52000, 4.5644e-003
247.975, 52.60667, 4.5740e-003
248.329, 52.69333, 4.5828e-003
248.684, 52.78000, 4.5925e-003
249.039, 52.86667, 4.6004e-003
249.4, 52.95333, 4.6081e-003
249.753, 53.04000, 4.6165e-003
250.114, 53.12667, 4.6249e-003
250.469, 53.21333, 4.6337e-003
250.825, 53.30000, 4.6427e-003
251.172, 53.38667, 4.6513e-003
251.528, 53.47333, 4.6609e-003
251.885, 53.56000, 4.6698e-003
252.236, 53.64667, 4.6801e-003
252.6, 53.73333, 4.6895e-003
252.948, 53.82000, 4.6985e-003
253.309, 53.90667, 4.7078e-003
253.652, 53.99333, 4.7169e-003
254.008, 54.08000, 4.7260e-003
254.362, 54.16667, 4.7352e-003
254.719, 54.25333, 4.7445e-003
255.073, 54.34000, 4.7536e-003
255.427, 54.42667, 4.7625e-003
255.777, 54.51333, 4.7723e-003
256.13, 54.60000, 4.7815e-003
256.483, 54.68667, 4.7909e-003
256.835, 54.77333, 4.7999e-003
257.183, 54.86000, 4.8090e-003
257.537, 54.94667, 4.8188e-003
257.893, 55.03333, 4.8280e-003
258.24, 55.12000, 4.8367e-003
258.59, 55.20667, 4.8454e-003
258.941, 55.29333, 4.8537e-003
259.29, 55.38000, 4.8619e-003
259.643, 55.46667, 4.8704e-003
259.997, 55.55333, 4.8782e-003
260.343, 55.64000, 4.8870e-003
260.698, 55.72667, 4.8960e-003
261.046, 55.81333, 4.9045e-003
261.392, 55.90000, 4.9141e-003
261.75, 55.98667, 4.9230e-003
262.103, 56.07333, 4.9322e-003
262.454, 56.16000, 4.9413e-003
262.811, 56.24667, 4.9504e-003
263.161, 56.33333, 4.9597e-003
263.509, 56.42000, 4.9685e-003
263.86, 56.50667, 4.9773e-003
264.211, 56.59333, 4.9867e-003
264.554, 56.68000, 4.9957e-003
264.896, 56.76667, 5.0047e-003
265.252, 56.85333, 5.0141e-003
265.606, 56.94000, 5.0232e-003
265.951, 57.02667, 5.0319e-003
266.294, 57.11333, 5.0414e-003
266.637, 57.20000, 5.0505e-003
266.987, 57.28667, 5.0600e-003
267.337, 57.37333, 5.0687e-003
267.682, 57.46000, 5.0778e-003
268.028, 57.54667, 5.0867e-003
268.373, 57.63333, 5.0960e-003
268.721, 57.72000, 5.1048e-003
269.063, 57.80667, 5.1140e-003
269.413, 57.89333, 5.1232e-003
269.747, 57.98000, 5.1326e-003
270.096, 58.06667, 5.1411e-003
270.436, 58.15333, 5.1487e-003
270.788, 58.24000, 5.1571e-003
271.137, 58.32667, 5.1645e-003
271.484, 58.41333, 5.1738e-003
271.826, 58.50000, 5.1804e-003
272.177, 58.58667, 5.1884e-003
272.519, 58.67333, 5.1961e-003
272.859, 58.76000, 5.2041e-003
273.21, 58.84667, 5.2118e-003
273.552, 58.93333, 5.2197e-003
273.902, 59.02000, 5.2276e-003
274.243, 59.10667, 5.2354e-003
274.589, 59.19333, 5.2434e-003
274.934, 59.28000, 5.2516e-003
275.285, 59.36667, 5.2590e-003
275.623, 59.45333, 5.2676e-003
275.979, 59.54000, 5.2763e-003
276.317, 59.62667, 5.2838e-003
276.655, 59.71333, 5.2921e-003
276.996, 59.80000, 5.3011e-003
277.341, 59.88667, 5.3099e-003
277.683, 59.97333, 5.3193e-003
278.026, 60.06000, 5.3282e-003
278.368, 60.14667, 5.3367e-003
278.711, 60.23333, 5.3457e-003
279.052, 60.32000, 5.3543e-003
279.394, 60.40667, 5.3637e-003
279.733, 60.49333, 5.3722e-003
280.076, 60.58000, 5.3812e-003
280.419, 60.66667, 5.3904e-003
280.765, 60.75333, 5.3994e-003
281.11, 60.84000, 5.4085e-003
281.449, 60.92667, 5.4175e-003
281.788, 61.01333, 5.4261e-003
282.127, 61.10000, 5.4353e-003
282.464, 61.18667, 5.4434e-003
282.803, 61.27333, 5.4528e-003
283.141, 61.36000, 5.4615e-003
283.485, 61.44667, 5.4706e-003
283.818, 61.53333, 5.4780e-003
284.159, 61.62000, 5.4866e-003
284.501, 61.70667, 5.4945e-003
284.844, 61.79333, 5.5024e-003
285.183, 61.88000, 5.5096e-003
285.521, 61.96667, 5.5180e-003
285.856, 62.05333, 5.5251e-003
286.196, 62.14000, 5.5322e-003
286.535, 62.22667, 5.5401e-003
286.872, 62.31333, 5.5475e-003
287.211, 62.40000, 5.5545e-003
287.554, 62.48667, 5.5629e-003
287.888, 62.57333, 5.5703e-003
288.223, 62.66000, 5.5778e-003
288.556, 62.74667, 5.5863e-003
288.894, 62.83333, 5.5945e-003
289.244, 62.92000, 5.6018e-003
289.576, 63.00667, 5.6096e-003
289.914, 63.09333, 5.6171e-003
290.256, 63.18000, 5.6257e-003
290.593, 63.26667, 5.6348e-003
290.935, 63.35333, 5.6435e-003
291.273, 63.44000, 5.6521e-003
291.607, 63.52667, 5.6610e-003
291.946, 63.61333, 5.6693e-003
292.277, 63.70000, 5.6784e-003
292.618, 63.78667, 5.6871e-003
292.95, 63.87333, 5.6957e-003
293.294, 63.96000, 5.7045e-003
293.623, 64.04667, 5.7137e-003
293.96, 64.13333, 5.7225e-003
294.294, 64.22000, 5.7311e-003
294.624, 64.30667, 5.7394e-003
294.957, 64.39333, 5.7481e-003
295.307, 64.48000, 5.7574e-003
295.632, 64.56667, 5.7649e-003
295.973, 64.65333, 5.7725e-003
296.302, 64.74000, 5.7797e-003
296.638, 64.82667, 5.7879e-003
296.975, 64.91333, 5.7951e-003
297.306, 65.00000, 5.8026e-003
297.642, 65.08667, 5.8100e-003
297.98, 65.17333, 5.8173e-003
298.306, 65.26000, 5.8252e-003
298.643, 65.34667, 5.8321e-003
298.969, 65.43333, 5.8393e-003
299.305, 65.52000, 5.8468e-003
299.638, 65.60667, 5.8542e-003
299.976, 65.69333, 5.8619e-003
300.308, 65.78000, 5.8694e-003
300.639, 65.86667, 5.8764e-003
300.966, 65.95333, 5.8847e-003
301.3, 66.04000, 5.8917e-003
301.635, 66.12667, 5.8994e-003
301.966, 66.21333, 5.9071e-003
302.296, 66.30000, 5.9138e-003
302.627, 66.38667, 5.9218e-003
302.962, 66.47333, 5.9287e-003
303.29, 66.56000, 5.9362e-003
303.619, 66.64667, 5.9439e-003
303.948, 66.73333, 5.9508e-003
304.274, 66.82000, 5.9587e-003
304.605, 66.90667, 5.9660e-003
304.935, 66.99333, 5.9743e-003
305.268, 67.08000, 5.9821e-003
305.603, 67.16667, 5.9901e-003
305.927, 67.25333, 5.9970e-003
306.259, 67.34000, 6.0050e-003
306.582, 67.42667, 6.0119e-003
306.917, 67.51333, 6.0189e-003
307.252, 67.60000, 6.0267e-003
307.581, 67.68667, 6.0342e-003
307.911, 67.77333, 6.0411e-003
308.239, 67.86000, 6.0489e-003
308.573, 67.94667, 6.0563e-003
308.907, 68.03333, 6.0640e-003
309.229, 68.12000, 6.0723e-003
309.563, 68.20667, 6.0789e-003
309.892, 68.29333, 6.0877e-003
310.225, 68.38000, 6.0941e-003
310.55, 68.46667, 6.1022e-003
310.874, 68.55333, 6.1089e-003
311.206, 68.64000, 6.1179e-003
311.528, 68.72667, 6.1245e-003
311.867, 68.81333, 6.1324e-003
312.19, 68.90000, 6.1395e-003
312.518, 68.98667, 6.1479e-003
312.853, 69.07333, 6.1557e-003
313.172, 69.16000, 6.1643e-003
313.502, 69.24667, 6.1723e-003
313.826, 69.33333, 6.1805e-003
314.157, 69.42000, 6.1890e-003
314.479, 69.50667, 6.1977e-003
314.799, 69.59333, 6.2062e-003
315.132, 69.68000, 6.2137e-003
315.461, 69.76667, 6.2218e-003
315.785, 69.85333, 6.2282e-003
316.115, 69.94000, 6.2368e-003
316.437, 70.02667, 6.2452e-003
316.767, 70.11333, 6.2536e-003
317.094, 70.20000, 6.2622e-003
317.424, 70.28667, 6.2709e-003
317.75, 70.37333, 6.2777e-003
318.071, 70.46000, 6.2855e-003
318.396, 70.54667, 6.2922e-003
318.72, 70.63333, 6.2995e-003
319.043, 70.72000, 6.3071e-003
319.371, 70.80667, 6.3142e-003
319.691, 70.89333, 6.3219e-003
320.013, 70.98000, 6.3287e-003
320.339, 71.06667, 6.3369e-003
320.662, 71.15333, 6.3430e-003
320.98, 71.24000, 6.3510e-003
321.308, 71.32667, 6.3584e-003
321.631, 71.41333, 6.3661e-003
321.949, 71.50000, 6.3747e-003
322.272, 71.58667, 6.3834e-003
322.599, 71.67333, 6.3905e-003
322.92, 71.76000, 6.3986e-003
323.236, 71.84667, 6.4068e-003
323.566, 71.93333, 6.4159e-003
323.885, 72.02000, 6.4239e-003
324.212, 72.10667, 6.4325e-003
324.529, 72.19333, 6.4406e-003
324.861, 72.28000, 6.4477e-003
325.175, 72.36667, 6.4565e-003
325.501, 72.45333, 6.4649e-003
325.819, 72.54000, 6.4733e-003
326.139, 72.62667, 6.4816e-003
326.463, 72.71333, 6.4898e-003
326.786, 72.80000, 6.4982e-003
327.109, 72.88667, 6.5064e-003
327.433, 72.97333, 6.5144e-003
327.758, 73.06000, 6.5233e-003
328.079, 73.14667, 6.5314e-003
328.398, 73.23333, 6.5400e-003
328.713, 73.32000, 6.5481e-003
329.041, 73.40667, 6.5567e-003
329.365, 73.49333, 6.5653e-003
329.688, 73.58000, 6.5735e-003
330.008, 73.66667, 6.5810e-003
330.332, 73.75333, 6.5899e-003
330.63, 73.84000, 6.5976e-003
330.953, 73.92667, 6.6063e-003
331.279, 74.01333, 6.6149e-003
331.597, 74.10000, 6.6228e-003
331.916, 74.18667, 6.6316e-003
332.243, 74.27333, 6.6403e-003
332.562, 74.36000, 6.6489e-003
332.873, 74.44667, 6.6577e-003
333.192, 74.53333, 6.6651e-003
333.513, 74.62000, 6.6734e-003
333.836, 74.70667, 6.6815e-003
334.154, 74.79333, 6.6896e-003
334.468, 74.88000, 6.6977e-003
334.789, 74.96667, 6.7063e-003
335.105, 75.05333, 6.7148e-003
335.42, 75.14000, 6.7225e-003
335.745, 75.22667, 6.7313e-003
336.065, 75.31333, 6.7398e-003
336.379, 75.40000, 6.7477e-003
336.695, 75.48667, 6.7563e-003
337.011, 75.57333, 6.7649e-003
337.33, 75.66000, 6.7730e-003
337.647, 75.74667, 6.7813e-003
337.96, 75.83333, 6.7897e-003
338.281, 75.92000, 6.7971e-003
338.594, 76.00667, 6.8051e-003
338.91, 76.09333, 6.8137e-003
339.231, 76.18000, 6.8220e-003
339.542, 76.26667, 6.8305e-003
339.86, 76.35333, 6.8389e-003
340.186, 76.44000, 6.8472e-003
340.498, 76.52667, 6.8555e-003
340.811, 76.61333, 6.8642e-003
341.128, 76.70000, 6.8719e-003
341.448, 76.78667, 6.8796e-003
341.757, 76.87333, 6.8881e-003
342.074, 76.96000, 6.8960e-003
342.389, 77.04667, 6.9045e-003
342.703, 77.13333, 6.9128e-003
343.013, 77.22000, 6.9215e-003
343.329, 77.30667, 6.9295e-003
343.646, 77.39333, 6.9379e-003
343.965, 77.48000, 6.9459e-003
344.282, 77.56667, 6.9544e-003
344.595, 77.65333, 6.9631e-003
344.914, 77.74000, 6.9707e-003
345.205, 77.82667, 6.9790e-003
345.541, 77.91333, 6.9862e-003
345.85, 78.00000, 6.9946e-003
346.162, 78.08667, 7.0029e-003
346.475, 78.17333, 7.0116e-003
346.791, 78.26000, 7.0191e-003
347.104, 78.34667, 7.0273e-003
347.417, 78.43333, 7.0355e-003
347.724, 78.52000, 7.0439e-003
348.04, 78.60667, 7.0520e-003
348.352, 78.69333, 7.0605e-003
348.662, 78.78000, 7.0691e-003
348.978, 78.86667, 7.0769e-003
349.298, 78.95333, 7.0858e-003
349.608, 79.04000, 7.0929e-003
349.918, 79.12667, 7.1003e-003
350.23, 79.21333, 7.1082e-003
350.538, 79.30000, 7.1162e-003
350.844, 79.38667, 7.1246e-003
351.159, 79.47333, 7.1333e-003
351.469, 79.56000, 7.1413e-003
351.772, 79.64667, 7.1495e-003
352.082, 79.73333, 7.1577e-003
352.393, 79.82000, 7.1652e-003
352.706, 79.90667, 7.1734e-003
353.012, 79.99333, 7.1820e-003
353.331, 80.08000, 7.1900e-003
353.649, 80.16667, 7.1982e-003
353.962, 80.25333, 7.2067e-003
354.268, 80.34000, 7.2146e-003
354.574, 80.42667, 7.2227e-003
354.879, 80.51333, 7.2308e-003
355.194, 80.60000, 7.2386e-003
355.51, 80.68667, 7.2469e-003
355.82, 80.77333, 7.2550e-003
356.129, 80.86000, 7.2625e-003
356.436, 80.94667, 7.2708e-003
356.747, 81.03333, 7.2795e-003
357.053, 81.12000, 7.2869e-003
357.366, 81.20667, 7.2948e-003
357.669, 81.29333, 7.3033e-003
357.984, 81.38000, 7.3117e-003
358.3, 81.46667, 7.3196e-003
358.605, 81.55333, 7.3277e-003
358.918, 81.64000, 7.3350e-003
359.221, 81.72667, 7.3432e-003
359.535, 81.81333, 7.3509e-003
359.843, 81.90000, 7.3592e-003
360.153, 81.98667, 7.3670e-003
360.455, 82.07333, 7.3752e-003
360.763, 82.16000, 7.3838e-003
361.071, 82.24667, 7.3912e-003
361.377, 82.33333, 7.3996e-003
361.687, 82.42000, 7.4078e-003
361.991, 82.50667, 7.4153e-003
362.299, 82.59333, 7.4232e-003
362.591, 82.68000, 7.4307e-003
362.899, 82.76667, 7.4381e-003
363.214, 82.85333, 7.4472e-003
363.524, 82.94000, 7.4544e-003
363.827, 83.02667, 7.4620e-003
364.136, 83.11333, 7.4709e-003
364.438, 83.20000, 7.4789e-003
364.75, 83.28667, 7.4865e-003
365.057, 83.37333, 7.4954e-003
365.357, 83.46000, 7.5032e-003
365.669, 83.54667, 7.5115e-003
365.964, 83.63333, 7.5188e-003
366.273, 83.72000, 7.5261e-003
366.581, 83.80667, 7.5341e-003
366.884, 83.89333, 7.5422e-003
367.193, 83.98000, 7.5498e-003
367.503, 84.06667, 7.5583e-003
367.803, 84.15333, 7.5655e-003
368.113, 84.24000, 7.5738e-003
368.428, 84.32667, 7.5816e-003
368.728, 84.41333, 7.5899e-003
369.027, 84.50000, 7.5978e-003
369.341, 84.58667, 7.6056e-003
369.644, 84.67333, 7.6136e-003
369.944, 84.76000, 7.6218e-003
370.252, 84.84667, 7.6294e-003
370.558, 84.93333, 7.6376e-003
370.863, 85.02000, 7.6453e-003
371.164, 85.10667, 7.6536e-003
371.464, 85.19333, 7.6619e-003
371.766, 85.28000, 7.6703e-003
372.075, 85.36667, 7.6776e-003
372.381, 85.45333, 7.6858e-003
372.682, 85.54000, 7.6935e-003
372.983, 85.62667, 7.7003e-003
373.291, 85.71333, 7.7082e-003
373.59, 85.80000, 7.7164e-003
373.897, 85.88667, 7.7248e-003
374.199, 85.97333, 7.7325e-003
374.506, 86.06000, 7.7399e-003
374.796, 86.14667, 7.7482e-003
375.106, 86.23333, 7.7553e-003
375.411, 86.32000, 7.7645e-003
375.711, 86.40667, 7.7722e-003
376.014, 86.49333, 7.7795e-003
376.315, 86.58000, 7.7867e-003
376.616, 86.66667, 7.7947e-003
376.924, 86.75333, 7.8025e-003
377.222, 86.84000, 7.8106e-003
377.522, 86.92667, 7.8184e-003
377.825, 87.01333, 7.8262e-003
378.129, 87.10000, 7.8343e-003
378.439, 87.18667, 7.8425e-003
378.734, 87.27333, 7.8503e-003
379.041, 87.36000, 7.8577e-003
379.344, 87.44667, 7.8661e-003
379.644, 87.53333, 7.8740e-003
379.948, 87.62000, 7.8815e-003
380.255, 87.70667, 7.8908e-003
380.544, 87.79333, 7.8979e-003
380.85, 87.88000, 7.9058e-003
381.147, 87.96667, 7.9129e-003
381.451, 88.05333, 7.9210e-003
381.75, 88.14000, 7.9284e-003
382.053, 88.22667, 7.9365e-003
382.354, 88.31333, 7.9442e-003
382.65, 88.40000, 7.9519e-003
382.949, 88.48667, 7.9598e-003
383.253, 88.57333, 7.9675e-003
383.554, 88.66000, 7.9760e-003
383.854, 88.74667, 7.9834e-003
384.149, 88.83333, 7.9907e-003
384.443, 88.92000, 7.9986e-003
384.743, 89.00667, 8.0067e-003
385.043, 89.09333, 8.0149e-003
385.345, 89.18000, 8.0214e-003
385.647, 89.26667, 8.0292e-003
385.947, 89.35333, 8.0377e-003
386.242, 89.44000, 8.0451e-003
386.54, 89.52667, 8.0532e-003
386.839, 89.61333, 8.0603e-003
387.131, 89.70000, 8.0682e-003
387.431, 89.78667, 8.0767e-003
387.731, 89.87333, 8.0840e-003
388.029, 89.96000, 8.0922e-003
388.327, 90.04667, 8.0995e-003
388.617, 90.13333, 8.1073e-003
388.92, 90.22000, 8.1148e-003
389.216, 90.30667, 8.1223e-003
389.52, 90.39333, 8.1298e-003
389.815, 90.48000, 8.1378e-003
390.115, 90.56667, 8.1460e-003
390.415, 90.65333, 8.1534e-003
390.703, 90.74000, 8.1606e-003
391.002, 90.82667, 8.1693e-003
391.301, 90.91333, 8.1769e-003
391.601, 91.00000, 8.1850e-003
391.895, 91.08667, 8.1925e-003
392.188, 91.17333, 8.2006e-003
392.492, 91.26000, 8.2081e-003
392.786, 91.34667, 8.2165e-003
393.083, 91.43333, 8.2233e-003
393.385, 91.52000, 8.2315e-003
393.679, 91.60667, 8.2394e-003
393.976, 91.69333, 8.2470e-003
394.273, 91.78000, 8.2537e-003
394.569, 91.86667, 8.2613e-003
394.861, 91.95333, 8.2687e-003
395.153, 92.04000, 8.2771e-003
395.453, 92.12667, 8.2847e-003
395.748, 92.21333, 8.2921e-003
396.04, 92.30000, 8.3002e-003
396.339, 92.38667, 8.3073e-003
396.627, 92.47333, 8.3152e-003
396.928, 92.56000, 8.3230e-003
397.218, 92.64667, 8.3306e-003
397.508, 92.73333, 8.3383e-003
397.806, 92.82000, 8.3460e-003
398.098, 92.90667, 8.3535e-003
398.395, 92.99333, 8.3615e-003
398.679, 93.08000, 8.3694e-003
398.978, 93.16667, 8.3770e-003
399.269, 93.25333, 8.3845e-003
399.566, 93.34000, 8.3907e-003
399.86, 93.42667, 8.3993e-003
400.153, 93.51333, 8.4069e-003
400.453, 93.60000, 8.4142e-003
400.751, 93.68667, 8.4216e-003
401.046, 93.77333, 8.4304e-003
401.339, 93.86000, 8.4379e-003
401.638, 93.94667, 8.4454e-003
401.931, 94.03333, 8.4530e-003
402.224, 94.12000, 8.4601e-003
402.514, 94.20667, 8.4673e-003
402.804, 94.29333, 8.4759e-003
403.102, 94.38000, 8.4837e-003
403.392, 94.46667, 8.4906e-003
403.681, 94.55333, 8.4974e-003
403.971, 94.64000, 8.5052e-003
404.266, 94.72667, 8.5124e-003
404.554, 94.81333, 8.5205e-003
404.848, 94.90000, 8.5279e-003
405.141, 94.98667, 8.5360e-003
405.429, 95.07333, 8.5437e-003
405.722, 95.16000, 8.5511e-003
406.017, 95.24667, 8.5586e-003
406.31, 95.33333, 8.5665e-003
406.601, 95.42000, 8.5739e-003
406.895, 95.50667, 8.5812e-003
407.186, 95.59333, 8.5895e-003
407.477, 95.68000, 8.5965e-003
407.767, 95.76667, 8.6039e-003
408.059, 95.85333, 8.6114e-003
408.344, 95.94000, 8.6195e-003
408.645, 96.02667, 8.6272e-003
408.937, 96.11333, 8.6347e-003
409.228, 96.20000, 8.6422e-003
409.521, 96.28667, 8.6494e-003
409.81, 96.37333, 8.6565e-003
410.102, 96.46000, 8.6646e-003
410.392, 96.54667, 8.6724e-003
410.685, 96.63333, 8.6794e-003
410.97, 96.72000, 8.6871e-003
411.262, 96.80667, 8.6948e-003
411.557, 96.89333, 8.7021e-003
411.848, 96.98000, 8.7101e-003
412.143, 97.06667, 8.7173e-003
412.431, 97.15333, 8.7251e-003
412.719, 97.24000, 8.7325e-003
413.012, 97.32667, 8.7408e-003
413.304, 97.41333, 8.7478e-003
413.591, 97.50000, 8.7553e-003
413.887, 97.58667, 8.7628e-003
414.18, 97.67333, 8.7702e-003
414.466, 97.76000, 8.7778e-003
414.758, 97.84667, 8.7854e-003
415.038, 97.93333, 8.7930e-003
415.322, 98.02000, 8.8000e-003
415.613, 98.10667, 8.8077e-003
415.902, 98.19333, 8.8159e-003
416.18, 98.28000, 8.8227e-003
416.468, 98.36667, 8.8303e-003
416.763, 98.45333, 8.8372e-003
417.044, 98.54000, 8.8444e-003
417.334, 98.62667, 8.8518e-003
417.616, 98.71333, 8.8597e-003
417.899, 98.80000, 8.8669e-003
418.192, 98.88667, 8.8745e-003
418.491, 98.97333, 8.8816e-003
418.777, 99.06000, 8.8894e-003
419.059, 99.14667, 8.8970e-003
419.347, 99.23333, 8.9043e-003
419.636, 99.32000, 8.9122e-003
419.924, 99.40667, 8.9190e-003
420.207, 99.49333, 8.9264e-003
420.495, 99.58000, 8.9340e-003
420.783, 99.66667, 8.9417e-003
421.067, 99.75333, 8.9492e-003
421.366, 99.84000, 8.9569e-003
421.65, 99.92667, 8.9644e-003
421.938,100.013, 8.9710e-003
422.226,100.1, 8.9785e-003
422.512,100.187, 8.9859e-003
422.804,100.273, 8.9928e-003
423.087,100.36, 9.0004e-003
423.372,100.447, 9.0081e-003
423.66,100.533, 9.0153e-003
423.944,100.62, 9.0226e-003
424.234,100.707, 9.0304e-003
424.526,100.793, 9.0376e-003
424.814,100.88, 9.0457e-003
425.1,100.967, 9.0532e-003
425.383,101.053, 9.0607e-003
425.672,101.14, 9.0681e-003
425.956,101.227, 9.0749e-003
426.235,101.313, 9.0826e-003
426.526,101.4, 9.0900e-003
426.803,101.487, 9.0972e-003
427.086,101.573, 9.1038e-003
427.367,101.66, 9.1114e-003
427.651,101.747, 9.1187e-003
427.936,101.833, 9.1263e-003
428.224,101.92, 9.1335e-003
428.503,102.007, 9.1419e-003
428.795,102.093, 9.1488e-003
429.077,102.18, 9.1564e-003
429.361,102.267, 9.1632e-003
429.646,102.353, 9.1709e-003
429.927,102.44, 9.1788e-003
430.212,102.527, 9.1862e-003
430.507,102.613, 9.1932e-003
430.785,102.7, 9.2007e-003
431.069,102.787, 9.2088e-003
431.352,102.873, 9.2158e-003
431.638,102.96, 9.2232e-003
431.92,103.047, 9.2306e-003
432.206,103.133, 9.2379e-003
432.347,103.177, 9.2419e-003