File: data/8.1mm/oligTanz100s1r1-8.5mm.csv
#EXPORTTYPE:           ,DATA ALL
#FILE:                 ,oligTanz100s1r1.ngb-sle
#FORMAT:               ,NETZSCH5
#FTYPE:                ,ANSI
#IDENTITY:             ,sunstone
#DECIMAL:              ,POINT
#SEPARATOR:            ,COMMA
#MTYPE:                ,DIL
#INSTRUMENT:           ,NETZSCH DIL 402C
#PROJECT:              ,feldspar
#DATE/TIME:            ,8/25/2019 12:13:46 PM (UTC-5)
#CORR. FILE:           ,
#TEMPCAL:              ,TCALZERO.TMX
#LABORATORY:           ,Mineral Physics
#OPERATOR:             ,PAG
#REMARK:               ,bare, norm start, for short plageioclase, sapphire stnd, green sunstone from tanzania 001*
#SAMPLE:               ,green 100*
#SAMPLE LENGTH /mm:    ,8.489
#MATERIAL:             ,sapphire stnd
#MEASMODE:             ,Standard Expansion
#PURGE GAS 1:          ,ARGON
#FLOW RATE 1 /(ml/min):,75
#M.RANGE /µm:          ,500
#CORR. CODE:           ,010
#RANGE:                ,20.0°C/3.0(K/min)/1030.0°C
#SEGMENT:              ,S1/1
#SEG. 1:               ,20.0°C/3.0(K/min)/1030.0°C

##Temp./°C,Time/min,dL/Lo,Alpha/(1/K)
  19.02100,  0.00000,-1.3971e-006, 2.2671e-005
  20.02100,  3.39071,-1.7653e-005,-1.9527e-005
  21.02100,  3.84818,-3.4550e-005,-1.4921e-005
  22.02100,  4.18986,-4.7980e-005,-1.1965e-005
  23.02100,  4.47667,-5.8441e-005,-8.0307e-006
  24.02100,  4.73379,-6.7057e-005,-8.0313e-006
  25.02100,  4.97289,-7.4157e-005,-5.8097e-006
  26.02100,  5.19972,-7.9227e-005,-4.2678e-006
  27.02100,  5.41747,-8.3237e-005,-3.5821e-006
  28.02100,  5.62870,-8.6155e-005,-2.7411e-006
  29.02100,  5.83593,-8.8607e-005,-1.8225e-006
  30.02100,  6.04006,-9.1211e-005,-2.6307e-006
  31.02100,  6.24201,-9.4947e-005,-4.3631e-006
  32.02100,  6.44266,-1.0167e-004,-9.7602e-006
  33.02100,  6.64231,-1.1588e-004,-2.0205e-005
  34.02100,  6.84166,-1.4167e-004,-3.0926e-005
  35.02100,  7.04077,-1.7776e-004,-3.9675e-005
  36.02100,  7.23956,-2.2182e-004,-4.7626e-005
  37.02100,  7.43872,-2.7070e-004,-4.6981e-005
  38.02100,  7.63826,-3.1304e-004,-3.7267e-005
  39.02100,  7.83770,-3.4369e-004,-2.6950e-005
  40.02100,  8.03641,-3.6800e-004,-2.1222e-005
  41.02100,  8.23388,-3.8577e-004,-1.5583e-005
  42.02100,  8.43068,-3.9819e-004,-8.2504e-006
  43.02100,  8.62751,-4.0475e-004,-3.4416e-006
  44.02100,  8.82345,-4.0648e-004,-9.6770e-008
  45.02100,  9.01796,-4.0501e-004, 2.7758e-006
  46.02100,  9.21086,-4.0137e-004, 3.8704e-006
  47.02100,  9.40247,-3.9669e-004, 4.3965e-006
  48.02100,  9.59321,-3.9189e-004, 5.5453e-006
  49.02100,  9.78328,-3.8652e-004, 5.1602e-006
  50.02100,  9.97213,-3.8052e-004, 6.7659e-006
  51.02100, 10.16003,-3.7413e-004, 6.1215e-006
  52.02100, 10.34739,-3.6741e-004, 6.6352e-006
  53.02100, 10.53427,-3.6109e-004, 7.0296e-006
  54.02100, 10.72115,-3.5359e-004, 7.2236e-006
  55.02100, 10.90745,-3.4644e-004, 7.4656e-006
  56.02100, 11.09355,-3.3906e-004, 7.7559e-006
  57.02100, 11.27944,-3.3063e-004, 8.0403e-006
  58.02100, 11.46518,-3.2288e-004, 7.8718e-006
  59.02100, 11.65092,-3.1447e-004, 8.5453e-006
  60.02100, 11.83685,-3.0591e-004, 8.1685e-006
  61.02100, 12.02322,-2.9666e-004, 9.3856e-006
  62.02100, 12.20973,-2.8815e-004, 9.3645e-006
  63.02100, 12.39646,-2.7864e-004, 8.4938e-006
  64.02100, 12.58325,-2.6883e-004, 9.7421e-006
  65.02100, 12.77012,-2.5927e-004, 1.0033e-005
  66.02100, 12.95733,-2.4900e-004, 1.0181e-005
  67.02100, 13.14480,-2.3863e-004, 1.0425e-005
  68.02100, 13.33245,-2.2840e-004, 1.0171e-005
  69.02100, 13.52055,-2.1856e-004, 1.0445e-005
  70.02100, 13.70896,-2.0780e-004, 1.1107e-005
  71.02100, 13.89829,-1.9715e-004, 1.0175e-005
  72.02100, 14.08773,-1.8634e-004, 1.1301e-005
  73.02100, 14.27755,-1.7556e-004, 1.0436e-005
  74.02100, 14.46760,-1.6427e-004, 1.0988e-005
  75.02100, 14.65723,-1.5294e-004, 1.0194e-005
  76.02100, 14.84711,-1.4230e-004, 1.1498e-005
  77.02100, 15.03714,-1.3039e-004, 1.1025e-005
  78.02100, 15.22771,-1.1889e-004, 1.0831e-005
  79.02100, 15.41890,-1.0814e-004, 1.1942e-005
  80.02100, 15.61020,-9.6606e-005, 1.1480e-005
  81.02100, 15.80205,-8.4459e-005, 1.1712e-005
  82.02100, 15.99394,-7.2578e-005, 1.1810e-005
  83.02100, 16.18599,-6.1408e-005, 1.0775e-005
  84.02100, 16.37819,-4.9600e-005, 1.2233e-005
  85.02100, 16.57100,-3.7036e-005, 1.1931e-005
  86.02100, 16.76356,-2.5511e-005, 1.1942e-005
  87.02100, 16.95692,-1.2993e-005, 1.2693e-005
  88.02100, 17.15099,-1.3419e-006, 1.1793e-005
  89.02100, 17.34626, 1.0681e-005, 1.2300e-005
  90.02100, 17.54243, 2.3308e-005, 1.2748e-005
  91.02100, 17.73923, 3.5511e-005, 1.2032e-005
  92.02100, 17.93608, 4.8116e-005, 1.2948e-005
  93.02100, 18.13323, 6.1068e-005, 1.2628e-005
  94.02100, 18.33066, 7.3278e-005, 1.2337e-005
  95.02100, 18.52845, 8.6179e-005, 1.2687e-005
  96.02100, 18.72642, 9.8705e-005, 1.2745e-005
  97.02100, 18.92485, 1.1164e-004, 1.3074e-005
  98.02100, 19.12349, 1.2380e-004, 1.2361e-005
  99.02100, 19.32233, 1.3689e-004, 1.2539e-005
 100.021, 19.52159, 1.4962e-004, 1.1371e-005
 101.021, 19.72159, 1.6152e-004, 1.3024e-005
 102.021, 19.92230, 1.7519e-004, 1.3033e-005
 103.021, 20.12314, 1.8784e-004, 1.2460e-005
 104.021, 20.32406, 2.0083e-004, 1.2843e-005
 105.021, 20.52549, 2.1429e-004, 1.3608e-005
 106.021, 20.72730, 2.2752e-004, 1.2702e-005
 107.021, 20.92956, 2.3971e-004, 1.3081e-005
 108.021, 21.13219, 2.5295e-004, 1.3092e-005
 109.021, 21.33480, 2.6620e-004, 1.3668e-005
 110.021, 21.53770, 2.7946e-004, 1.2727e-005
 111.021, 21.74101, 2.9283e-004, 1.3327e-005
 112.021, 21.94465, 3.0578e-004, 1.3899e-005
 113.021, 22.14917, 3.1963e-004, 1.3068e-005
 114.021, 22.35464, 3.3194e-004, 1.2843e-005
 115.021, 22.56057, 3.4567e-004, 1.3562e-005
 116.021, 22.76674, 3.5890e-004, 1.3520e-005
 117.021, 22.97319, 3.7191e-004, 1.3351e-005
 118.021, 23.18002, 3.8582e-004, 1.3488e-005
 119.021, 23.38728, 3.9889e-004, 1.3288e-005
 120.021, 23.59489, 4.1246e-004, 1.4129e-005
 121.021, 23.80292, 4.2626e-004, 1.3695e-005
 122.021, 24.01109, 4.3974e-004, 1.2678e-005
 123.021, 24.21856, 4.5253e-004, 1.3166e-005
 124.021, 24.42587, 4.6608e-004, 1.3913e-005
 125.021, 24.63346, 4.7903e-004, 1.2884e-005
 126.021, 24.84170, 4.9203e-004, 1.3600e-005
 127.021, 25.05061, 5.0585e-004, 1.3544e-005
 128.021, 25.25971, 5.1887e-004, 1.2912e-005
 129.021, 25.46887, 5.3207e-004, 1.3632e-005
 130.021, 25.67799, 5.4554e-004, 1.3708e-005
 131.021, 25.88769, 5.5892e-004, 1.2568e-005
 132.021, 26.09808, 5.7239e-004, 1.4247e-005
 133.021, 26.30896, 5.8610e-004, 1.3387e-005
 134.021, 26.51988, 5.9861e-004, 1.2382e-005
 135.021, 26.73057, 6.1227e-004, 1.3717e-005
 136.021, 26.94179, 6.2630e-004, 1.3674e-005
 137.021, 27.15376, 6.3964e-004, 1.3753e-005
 138.021, 27.36632, 6.5402e-004, 1.4298e-005
 139.021, 27.57934, 6.6642e-004, 1.2839e-005
 140.021, 27.79297, 6.8055e-004, 1.3530e-005
 141.021, 28.00676, 6.9385e-004, 1.3514e-005
 142.021, 28.22023, 7.0767e-004, 1.3813e-005
 143.021, 28.43321, 7.2130e-004, 1.4040e-005
 144.021, 28.64605, 7.3416e-004, 1.2339e-005
 145.021, 28.85975, 7.4815e-004, 1.3693e-005
 146.021, 29.07393, 7.6168e-004, 1.3695e-005
 147.021, 29.28902, 7.7550e-004, 1.4333e-005
 148.021, 29.50431, 7.8932e-004, 1.3790e-005
 149.021, 29.71959, 8.0336e-004, 1.4064e-005
 150.021, 29.93501, 8.1751e-004, 1.2574e-005
 151.021, 30.15028, 8.3026e-004, 1.3810e-005
 152.021, 30.36600, 8.4378e-004, 1.3993e-005
 153.021, 30.58183, 8.5838e-004, 1.4394e-005
 154.021, 30.79793, 8.7211e-004, 1.3956e-005
 155.021, 31.01427, 8.8613e-004, 1.4088e-005
 156.021, 31.23066, 9.0021e-004, 1.4052e-005
 157.021, 31.44730, 9.1283e-004, 1.3153e-005
 158.021, 31.66416, 9.2696e-004, 1.4278e-005
 159.021, 31.88147, 9.4123e-004, 1.3915e-005
 160.021, 32.09911, 9.5518e-004, 1.4059e-005
 161.021, 32.31711, 9.6928e-004, 1.3942e-005
 162.021, 32.53559, 9.8194e-004, 1.1584e-005
 163.021, 32.75414, 9.9569e-004, 1.3439e-005
 164.021, 32.97275, 1.0100e-003, 1.3683e-005
 165.021, 33.19133, 1.0239e-003, 1.4259e-005
 166.021, 33.41008, 1.0384e-003, 1.4023e-005
 167.021, 33.62908, 1.0519e-003, 1.3865e-005
 168.021, 33.84849, 1.0659e-003, 1.3545e-005
 169.021, 34.06812, 1.0801e-003, 1.4250e-005
 170.021, 34.28810, 1.0944e-003, 1.4305e-005
 171.021, 34.50840, 1.1071e-003, 1.2307e-005
 172.021, 34.72852, 1.1213e-003, 1.4330e-005
 173.021, 34.94887, 1.1362e-003, 1.4939e-005
 174.021, 35.16961, 1.1499e-003, 1.3809e-005
 175.021, 35.39043, 1.1646e-003, 1.3932e-005
 176.021, 35.61175, 1.1782e-003, 1.4256e-005
 177.021, 35.83337, 1.1930e-003, 1.4405e-005
 178.021, 36.05559, 1.2035e-003, 1.1388e-005
 179.021, 36.27785, 1.2171e-003, 1.4483e-005
 180.021, 36.49982, 1.2314e-003, 1.4017e-005
 181.021, 36.72184, 1.2458e-003, 1.4297e-005
 182.021, 36.94423, 1.2596e-003, 1.3675e-005
 183.021, 37.16741, 1.2741e-003, 1.4149e-005
 184.021, 37.39081, 1.2868e-003, 1.1559e-005
 185.021, 37.61445, 1.3009e-003, 1.4440e-005
 186.021, 37.83793, 1.3151e-003, 1.3456e-005
 187.021, 38.06154, 1.3294e-003, 1.3965e-005
 188.021, 38.28527, 1.3435e-003, 1.2540e-005
 189.021, 38.50947, 1.3563e-003, 1.3962e-005
 190.021, 38.73465, 1.3703e-003, 1.4494e-005
 191.021, 38.96032, 1.3841e-003, 1.3553e-005
 192.021, 39.18639, 1.3984e-003, 1.3817e-005
 193.021, 39.41241, 1.4127e-003, 1.3710e-005
 194.021, 39.63847, 1.4263e-003, 1.2683e-005
 195.021, 39.86459, 1.4402e-003, 1.4139e-005
 196.021, 40.09107, 1.4541e-003, 1.4453e-005
 197.021, 40.31780, 1.4683e-003, 1.4010e-005
 198.021, 40.54485, 1.4827e-003, 1.4296e-005
 199.021, 40.77196, 1.4951e-003, 1.3345e-005
 200.021, 40.99928, 1.5097e-003, 1.4376e-005
 201.021, 41.22688, 1.5237e-003, 1.3778e-005
 202.021, 41.45441, 1.5381e-003, 1.4394e-005
 203.021, 41.68254, 1.5523e-003, 1.4361e-005
 204.021, 41.91074, 1.5652e-003, 1.2218e-005
 205.021, 42.13952, 1.5784e-003, 1.4477e-005
 206.021, 42.36820, 1.5928e-003, 1.4179e-005
 207.021, 42.59715, 1.6074e-003, 1.4484e-005
 208.021, 42.82651, 1.6212e-003, 1.4120e-005
 209.021, 43.05657, 1.6349e-003, 1.2980e-005
 210.021, 43.28725, 1.6486e-003, 1.4576e-005
 211.021, 43.51791, 1.6625e-003, 1.4348e-005
 212.021, 43.74869, 1.6747e-003, 1.1936e-005
 213.021, 43.97935, 1.6878e-003, 1.3730e-005
 214.021, 44.21039, 1.7020e-003, 1.3885e-005
 215.021, 44.44176, 1.7163e-003, 1.3764e-005
 216.021, 44.67357, 1.7302e-003, 1.3383e-005
 217.021, 44.90556, 1.7421e-003, 1.2947e-005
 218.021, 45.13754, 1.7557e-003, 1.4141e-005
 219.021, 45.37006, 1.7700e-003, 1.4055e-005
 220.021, 45.60323, 1.7841e-003, 1.4545e-005
 221.021, 45.83698, 1.7974e-003, 1.2515e-005
 222.021, 46.07095, 1.8110e-003, 1.4204e-005
 223.021, 46.30483, 1.8253e-003, 1.4083e-005
 224.021, 46.53892, 1.8399e-003, 1.4605e-005
 225.021, 46.77329, 1.8540e-003, 1.3658e-005
 226.021, 47.00806, 1.8684e-003, 1.4467e-005
 227.021, 47.24268, 1.8823e-003, 1.4687e-005
 228.021, 47.47742, 1.8958e-003, 1.3625e-005
 229.021, 47.71240, 1.9093e-003, 1.4947e-005
 230.021, 47.94788, 1.9241e-003, 1.3882e-005
 231.021, 48.18367, 1.9382e-003, 1.4339e-005
 232.021, 48.42002, 1.9527e-003, 1.5049e-005
 233.021, 48.65673, 1.9662e-003, 1.3929e-005
 234.021, 48.89385, 1.9805e-003, 1.4400e-005
 235.021, 49.13112, 1.9945e-003, 1.3574e-005
 236.021, 49.36879, 2.0084e-003, 1.4085e-005
 237.021, 49.60692, 2.0229e-003, 1.3762e-005
 238.021, 49.84521, 2.0371e-003, 1.4129e-005
 239.021, 50.08354, 2.0510e-003, 1.4096e-005
 240.021, 50.32185, 2.0653e-003, 1.4129e-005
 241.021, 50.56071, 2.0794e-003, 1.3935e-005
 242.021, 50.80032, 2.0936e-003, 1.3744e-005
 243.021, 51.04044, 2.1077e-003, 1.4879e-005
 244.021, 51.28068, 2.1215e-003, 1.4348e-005
 245.021, 51.52094, 2.1356e-003, 1.4266e-005
 246.021, 51.76111, 2.1500e-003, 1.3695e-005
 247.021, 52.00154, 2.1637e-003, 1.3878e-005
 248.021, 52.24206, 2.1783e-003, 1.4559e-005
 249.021, 52.48311, 2.1926e-003, 1.3531e-005
 250.021, 52.72442, 2.2057e-003, 1.4211e-005
 251.021, 52.96637, 2.2200e-003, 1.4019e-005
 252.021, 53.20840, 2.2344e-003, 1.4151e-005
 253.021, 53.45084, 2.2480e-003, 1.4389e-005
 254.021, 53.69353, 2.2617e-003, 1.3863e-005
 255.021, 53.93694, 2.2762e-003, 1.4197e-005
 256.021, 54.18102, 2.2904e-003, 1.2602e-005
 257.021, 54.42548, 2.3031e-003, 1.4085e-005
 258.021, 54.66998, 2.3175e-003, 1.4209e-005
 259.021, 54.91473, 2.3322e-003, 1.4347e-005
 260.021, 55.15990, 2.3463e-003, 1.4214e-005
 261.021, 55.40529, 2.3599e-003, 1.3440e-005
 262.021, 55.65118, 2.3739e-003, 1.3794e-005
 263.021, 55.89701, 2.3876e-003, 1.4214e-005
 264.021, 56.14334, 2.4020e-003, 1.5171e-005
 265.021, 56.39038, 2.4162e-003, 1.3832e-005
 266.021, 56.63797, 2.4307e-003, 1.3236e-005
 267.021, 56.88596, 2.4438e-003, 1.4121e-005
 268.021, 57.13363, 2.4580e-003, 1.3770e-005
 269.021, 57.38174, 2.4721e-003, 1.4225e-005
 270.021, 57.62968, 2.4859e-003, 1.4120e-005
 271.021, 57.87786, 2.5003e-003, 1.4377e-005
 272.021, 58.12617, 2.5149e-003, 1.3682e-005
 273.021, 58.37503, 2.5287e-003, 1.3965e-005
 274.021, 58.62479, 2.5428e-003, 1.4180e-005
 275.021, 58.87471, 2.5560e-003, 1.2495e-005
 276.021, 59.12515, 2.5702e-003, 1.4054e-005
 277.021, 59.37586, 2.5846e-003, 1.4874e-005
 278.021, 59.62678, 2.5990e-003, 1.4486e-005
 279.021, 59.87772, 2.6129e-003, 1.4123e-005
 280.021, 60.12878, 2.6267e-003, 1.3666e-005
 281.021, 60.38009, 2.6404e-003, 1.4306e-005
 282.021, 60.63202, 2.6548e-003, 1.4599e-005
 283.021, 60.88434, 2.6690e-003, 1.4211e-005
 284.021, 61.13679, 2.6829e-003, 1.4188e-005
 285.021, 61.38884, 2.6972e-003, 1.3621e-005
 286.021, 61.64141, 2.7107e-003, 1.3528e-005
 287.021, 61.89497, 2.7249e-003, 1.4034e-005
 288.021, 62.14949, 2.7386e-003, 1.3934e-005
 289.021, 62.40420, 2.7525e-003, 1.3825e-005
 290.021, 62.65923, 2.7671e-003, 1.4388e-005
 291.021, 62.91462, 2.7812e-003, 1.4818e-005
 292.021, 63.17095, 2.7954e-003, 1.3858e-005
 293.021, 63.42717, 2.8093e-003, 1.4329e-005
 294.021, 63.68276, 2.8234e-003, 1.3773e-005
 295.021, 63.93810, 2.8377e-003, 1.4521e-005
 296.021, 64.19380, 2.8518e-003, 1.5192e-005
 297.021, 64.45082, 2.8666e-003, 1.4061e-005
 298.021, 64.70846, 2.8806e-003, 1.3587e-005
 299.021, 64.96697, 2.8944e-003, 1.4542e-005
 300.021, 65.22528, 2.9087e-003, 1.4189e-005
 301.021, 65.48367, 2.9226e-003, 1.4602e-005
 302.021, 65.74167, 2.9371e-003, 1.3966e-005
 303.021, 66.00050, 2.9514e-003, 1.3886e-005
 304.021, 66.25946, 2.9657e-003, 1.4251e-005
 305.021, 66.51885, 2.9795e-003, 1.4364e-005
 306.021, 66.77860, 2.9939e-003, 1.4269e-005
 307.021, 67.03822, 3.0079e-003, 1.4242e-005
 308.021, 67.29827, 3.0218e-003, 1.4269e-005
 309.021, 67.55848, 3.0356e-003, 1.4098e-005
 310.021, 67.81955, 3.0497e-003, 1.4537e-005
 311.021, 68.08090, 3.0645e-003, 1.3741e-005
 312.021, 68.34253, 3.0781e-003, 1.3484e-005
 313.021, 68.60494, 3.0924e-003, 1.4898e-005
 314.021, 68.86841, 3.1059e-003, 1.3799e-005
 315.021, 69.13184, 3.1205e-003, 1.4000e-005
 316.021, 69.39501, 3.1352e-003, 1.4237e-005
 317.021, 69.65849, 3.1492e-003, 1.4641e-005
 318.021, 69.92268, 3.1632e-003, 1.3333e-005
 319.021, 70.18689, 3.1773e-003, 1.3906e-005
 320.021, 70.45172, 3.1908e-003, 1.4273e-005
 321.021, 70.71722, 3.2053e-003, 1.4074e-005
 322.021, 70.98255, 3.2195e-003, 1.3852e-005
 323.021, 71.24752, 3.2330e-003, 1.3156e-005
 324.021, 71.51282, 3.2469e-003, 1.4062e-005
 325.021, 71.77882, 3.2612e-003, 1.3865e-005
 326.021, 72.04511, 3.2752e-003, 1.4350e-005
 327.021, 72.31207, 3.2894e-003, 1.4147e-005
 328.021, 72.57893, 3.3031e-003, 1.4111e-005
 329.021, 72.84609, 3.3169e-003, 1.2373e-005
 330.021, 73.11386, 3.3302e-003, 1.3961e-005
 331.021, 73.38230, 3.3444e-003, 1.4088e-005
 332.021, 73.65038, 3.3583e-003, 1.3956e-005
 333.021, 73.91771, 3.3716e-003, 1.3183e-005
 334.021, 74.18615, 3.3853e-003, 1.4163e-005
 335.021, 74.45580, 3.3995e-003, 1.3640e-005
 336.021, 74.72526, 3.4134e-003, 1.4097e-005
 337.021, 74.99444, 3.4270e-003, 1.3500e-005
 338.021, 75.26398, 3.4414e-003, 1.4035e-005
 339.021, 75.53436, 3.4558e-003, 1.4207e-005
 340.021, 75.80466, 3.4694e-003, 1.4086e-005
 341.021, 76.07567, 3.4841e-003, 1.3642e-005
 342.021, 76.34725, 3.4981e-003, 1.3476e-005
 343.021, 76.61957, 3.5120e-003, 1.4453e-005
 344.021, 76.89172, 3.5259e-003, 1.4051e-005
 345.021, 77.16400, 3.5402e-003, 1.3247e-005
 346.021, 77.43682, 3.5542e-003, 1.3672e-005
 347.021, 77.71017, 3.5682e-003, 1.4801e-005
 348.021, 77.98381, 3.5820e-003, 1.4119e-005
 349.021, 78.25740, 3.5967e-003, 1.4197e-005
 350.021, 78.53154, 3.6107e-003, 1.4031e-005
 351.021, 78.80625, 3.6247e-003, 1.3998e-005
 352.021, 79.08115, 3.6395e-003, 1.4581e-005
 353.021, 79.35529, 3.6532e-003, 1.4899e-005
 354.021, 79.63018, 3.6671e-003, 1.4459e-005
 355.021, 79.90640, 3.6814e-003, 1.3945e-005
 356.021, 80.18356, 3.6956e-003, 1.4310e-005
 357.021, 80.46065, 3.7096e-003, 1.3946e-005
 358.021, 80.73761, 3.7239e-003, 1.3584e-005
 359.021, 81.01404, 3.7374e-003, 1.3889e-005
 360.021, 81.29121, 3.7520e-003, 1.4472e-005
 361.021, 81.56914, 3.7659e-003, 1.4242e-005
 362.021, 81.84742, 3.7794e-003, 1.3804e-005
 363.021, 82.12510, 3.7928e-003, 1.3876e-005
 364.021, 82.40339, 3.8064e-003, 1.3928e-005
 365.021, 82.68198, 3.8207e-003, 1.4028e-005
 366.021, 82.96105, 3.8341e-003, 1.4043e-005
 367.021, 83.24068, 3.8480e-003, 1.3422e-005
 368.021, 83.52161, 3.8613e-003, 1.3770e-005
 369.021, 83.80301, 3.8743e-003, 1.3446e-005
 370.021, 84.08438, 3.8873e-003, 1.3785e-005
 371.021, 84.36498, 3.9008e-003, 1.3342e-005
 372.021, 84.64592, 3.9140e-003, 1.3212e-005
 373.021, 84.92799, 3.9270e-003, 1.3009e-005
 374.021, 85.21158, 3.9397e-003, 1.2726e-005
 375.021, 85.49461, 3.9525e-003, 1.2250e-005
 376.021, 85.77650, 3.9656e-003, 1.2427e-005
 377.021, 86.05923, 3.9768e-003, 1.1990e-005
 378.021, 86.34279, 3.9887e-003, 1.1565e-005
 379.021, 86.62625, 4.0002e-003, 1.1609e-005
 380.021, 86.90995, 4.0113e-003, 1.0866e-005
 381.021, 87.19376, 4.0213e-003, 1.0619e-005
 382.021, 87.47828, 4.0318e-003, 9.1983e-006
 383.021, 87.76389, 4.0418e-003, 1.1519e-005
 384.021, 88.04941, 4.0533e-003, 1.2380e-005
 385.021, 88.33511, 4.0655e-003, 1.2039e-005
 386.021, 88.62083, 4.0785e-003, 1.0840e-005
 387.021, 88.90706, 4.0911e-003, 1.4269e-005
 388.021, 89.19409, 4.1057e-003, 1.4638e-005
 389.021, 89.48131, 4.1207e-003, 1.5628e-005
 390.021, 89.76849, 4.1361e-003, 1.5180e-005
 391.021, 90.05610, 4.1512e-003, 1.5275e-005
 392.021, 90.34390, 4.1675e-003, 1.6222e-005
 393.021, 90.63199, 4.1831e-003, 1.4825e-005
 394.021, 90.91992, 4.1988e-003, 1.6804e-005
 395.021, 91.20836, 4.2146e-003, 1.4789e-005
 396.021, 91.49733, 4.2304e-003, 1.5166e-005
 397.021, 91.78708, 4.2462e-003, 1.4921e-005
 398.021, 92.07728, 4.2608e-003, 1.5413e-005
 399.021, 92.36815, 4.2761e-003, 1.6184e-005
 400.021, 92.65894, 4.2923e-003, 1.3978e-005
 401.021, 92.95077, 4.3069e-003, 1.4621e-005
 402.021, 93.24348, 4.3218e-003, 1.6473e-005
 403.021, 93.53669, 4.3371e-003, 1.5144e-005
 404.021, 93.82899, 4.3520e-003, 1.4603e-005
 405.021, 94.12148, 4.3663e-003, 1.4344e-005
 406.021, 94.41294, 4.3812e-003, 1.4309e-005
 407.021, 94.70450, 4.3965e-003, 1.4429e-005
 408.021, 94.99680, 4.4109e-003, 1.5016e-005
 409.021, 95.28989, 4.4253e-003, 1.5161e-005
 410.021, 95.58364, 4.4398e-003, 1.3509e-005
 411.021, 95.87846, 4.4540e-003, 1.4844e-005
 412.021, 96.17419, 4.4683e-003, 1.4804e-005
 413.021, 96.46943, 4.4830e-003, 1.4807e-005
 414.021, 96.76407, 4.4972e-003, 1.5062e-005
 415.021, 97.05813, 4.5117e-003, 1.4945e-005
 416.021, 97.35230, 4.5262e-003, 1.4089e-005
 417.021, 97.64759, 4.5406e-003, 1.4180e-005
 418.021, 97.94492, 4.5549e-003, 1.4379e-005
 419.021, 98.24268, 4.5689e-003, 1.3890e-005
 420.021, 98.54001, 4.5833e-003, 1.5073e-005
 421.021, 98.83816, 4.5977e-003, 1.4724e-005
 422.021, 99.13677, 4.6121e-003, 1.5018e-005
 423.021, 99.43558, 4.6265e-003, 1.4227e-005
 424.021, 99.73472, 4.6407e-003, 1.4043e-005
 425.021,100.034, 4.6547e-003, 1.5226e-005
 426.021,100.333, 4.6692e-003, 1.3899e-005
 427.021,100.632, 4.6833e-003, 1.4314e-005
 428.021,100.932, 4.6975e-003, 1.4623e-005
 429.021,101.232, 4.7118e-003, 1.3694e-005
 430.021,101.532, 4.7261e-003, 1.4322e-005
 431.021,101.833, 4.7401e-003, 1.4217e-005
 432.021,102.134, 4.7546e-003, 1.3404e-005
 433.021,102.436, 4.7683e-003, 1.4491e-005
 434.021,102.738, 4.7830e-003, 1.4428e-005
 435.021,103.04, 4.7973e-003, 1.4076e-005
 436.021,103.343, 4.8116e-003, 1.3883e-005
 437.021,103.646, 4.8258e-003, 1.4127e-005
 438.021,103.949, 4.8398e-003, 1.4000e-005
 439.021,104.252, 4.8541e-003, 1.4736e-005
 440.021,104.554, 4.8685e-003, 1.3986e-005
 441.021,104.857, 4.8824e-003, 1.3979e-005
 442.021,105.162, 4.8962e-003, 1.4144e-005
 443.021,105.466, 4.9105e-003, 1.4564e-005
 444.021,105.772, 4.9250e-003, 1.4146e-005
 445.021,106.078, 4.9386e-003, 1.4822e-005
 446.021,106.385, 4.9535e-003, 1.3914e-005
 447.021,106.691, 4.9678e-003, 1.4074e-005
 448.021,106.997, 4.9820e-003, 1.3948e-005
 449.021,107.303, 4.9956e-003, 1.4548e-005
 450.021,107.611, 5.0098e-003, 1.4136e-005
 451.021,107.919, 5.0240e-003, 1.4333e-005
 452.021,108.227, 5.0379e-003, 1.4928e-005
 453.021,108.536, 5.0523e-003, 1.4106e-005
 454.021,108.845, 5.0663e-003, 1.4096e-005
 455.021,109.153, 5.0801e-003, 1.4213e-005
 456.021,109.462, 5.0948e-003, 1.3498e-005
 457.021,109.772, 5.1084e-003, 1.3693e-005
 458.021,110.082, 5.1224e-003, 1.4469e-005
 459.021,110.392, 5.1363e-003, 1.4274e-005
 460.021,110.702, 5.1511e-003, 1.4366e-005
 461.021,111.012, 5.1653e-003, 1.4254e-005
 462.021,111.322, 5.1793e-003, 1.4555e-005
 463.021,111.633, 5.1940e-003, 1.4485e-005
 464.021,111.945, 5.2079e-003, 1.4358e-005
 465.021,112.258, 5.2222e-003, 1.4161e-005
 466.021,112.571, 5.2362e-003, 1.4527e-005
 467.021,112.884, 5.2508e-003, 1.4426e-005
 468.021,113.197, 5.2640e-003, 1.3245e-005
 469.021,113.511, 5.2789e-003, 1.3721e-005
 470.021,113.824, 5.2932e-003, 1.4524e-005
 471.021,114.137, 5.3068e-003, 1.4117e-005
 472.021,114.451, 5.3208e-003, 1.3992e-005
 473.021,114.765, 5.3353e-003, 1.4236e-005
 474.021,115.081, 5.3496e-003, 1.4210e-005
 475.021,115.396, 5.3640e-003, 1.4391e-005
 476.021,115.711, 5.3783e-003, 1.3863e-005
 477.021,116.026, 5.3923e-003, 1.4760e-005
 478.021,116.34, 5.4068e-003, 1.4239e-005
 479.021,116.656, 5.4207e-003, 1.4135e-005
 480.021,116.972, 5.4353e-003, 1.3309e-005
 481.021,117.289, 5.4488e-003, 1.4326e-005
 482.021,117.605, 5.4637e-003, 1.4615e-005
 483.021,117.921, 5.4775e-003, 1.4396e-005
 484.021,118.24, 5.4923e-003, 1.4638e-005
 485.021,118.558, 5.5061e-003, 1.4497e-005
 486.021,118.876, 5.5203e-003, 1.4673e-005
 487.021,119.194, 5.5346e-003, 1.5412e-005
 488.021,119.513, 5.5492e-003, 1.4028e-005
 489.021,119.833, 5.5636e-003, 1.4781e-005
 490.021,120.153, 5.5775e-003, 1.3623e-005
 491.021,120.474, 5.5918e-003, 1.4409e-005
 492.021,120.796, 5.6060e-003, 1.4593e-005
 493.021,121.116, 5.6206e-003, 1.4092e-005
 494.021,121.437, 5.6346e-003, 1.3636e-005
 495.021,121.757, 5.6490e-003, 1.4762e-005
 496.021,122.078, 5.6629e-003, 1.4684e-005
 497.021,122.399, 5.6768e-003, 1.4030e-005
 498.021,122.721, 5.6912e-003, 1.3334e-005
 499.021,123.044, 5.7050e-003, 1.3780e-005
 500.021,123.367, 5.7192e-003, 1.3620e-005
 501.021,123.689, 5.7338e-003, 1.4376e-005
 502.021,124.011, 5.7483e-003, 1.4394e-005
 503.021,124.334, 5.7628e-003, 1.4542e-005
 504.021,124.657, 5.7771e-003, 1.4084e-005
 505.021,124.98, 5.7911e-003, 1.5379e-005
 506.021,125.304, 5.8056e-003, 1.4328e-005
 507.021,125.629, 5.8198e-003, 1.4831e-005
 508.021,125.954, 5.8339e-003, 1.5266e-005
 509.021,126.279, 5.8482e-003, 1.4950e-005
 510.021,126.604, 5.8624e-003, 1.4067e-005
 511.021,126.929, 5.8774e-003, 1.3273e-005
 512.021,127.254, 5.8914e-003, 1.4244e-005
 513.021,127.58, 5.9057e-003, 1.4312e-005
 514.021,127.906, 5.9201e-003, 1.4106e-005
 515.021,128.233, 5.9338e-003, 1.4765e-005
 516.021,128.56, 5.9485e-003, 1.5945e-005
 517.021,128.887, 5.9630e-003, 1.4498e-005
 518.021,129.214, 5.9774e-003, 1.4708e-005
 519.021,129.543, 5.9915e-003, 1.4143e-005
 520.021,129.872, 6.0053e-003, 1.5046e-005
 521.021,130.2, 6.0201e-003, 1.5312e-005
 522.021,130.529, 6.0347e-003, 1.3744e-005
 523.021,130.858, 6.0489e-003, 1.5158e-005
 524.021,131.187, 6.0632e-003, 1.4671e-005
 525.021,131.516, 6.0777e-003, 1.4310e-005
 526.021,131.847, 6.0922e-003, 1.5203e-005
 527.021,132.177, 6.1069e-003, 1.4549e-005
 528.021,132.508, 6.1213e-003, 1.4991e-005
 529.021,132.84, 6.1360e-003, 1.3836e-005
 530.021,133.172, 6.1502e-003, 1.4259e-005
 531.021,133.504, 6.1643e-003, 1.4140e-005
 532.021,133.833, 6.1787e-003, 1.4285e-005
 533.021,134.163, 6.1931e-003, 1.4355e-005
 534.021,134.494, 6.2075e-003, 1.3825e-005
 535.021,134.826, 6.2227e-003, 1.4678e-005
 536.021,135.158, 6.2369e-003, 1.5212e-005
 537.021,135.491, 6.2512e-003, 1.3739e-005
 538.021,135.824, 6.2660e-003, 1.4468e-005
 539.021,136.158, 6.2803e-003, 1.4329e-005
 540.021,136.493, 6.2953e-003, 1.5437e-005
 541.021,136.829, 6.3097e-003, 1.4263e-005
 542.021,137.163, 6.3244e-003, 1.3778e-005
 543.021,137.496, 6.3387e-003, 1.3737e-005
 544.021,137.83, 6.3525e-003, 1.3926e-005
 545.021,138.165, 6.3672e-003, 1.4614e-005
 546.021,138.498, 6.3819e-003, 1.3571e-005
 547.021,138.831, 6.3960e-003, 1.4017e-005
 548.021,139.165, 6.4105e-003, 1.5050e-005
 549.021,139.501, 6.4258e-003, 1.5074e-005
 550.021,139.837, 6.4401e-003, 1.4343e-005
 551.021,140.174, 6.4549e-003, 1.5858e-005
 552.021,140.513, 6.4700e-003, 1.4171e-005
 553.021,140.852, 6.4833e-003, 1.3817e-005
 554.021,141.189, 6.4986e-003, 1.4893e-005
 555.021,141.524, 6.5129e-003, 1.3889e-005
 556.021,141.861, 6.5273e-003, 1.5151e-005
 557.021,142.198, 6.5415e-003, 1.3905e-005
 558.021,142.537, 6.5561e-003, 1.3988e-005
 559.021,142.875, 6.5707e-003, 1.4795e-005
 560.021,143.214, 6.5852e-003, 1.4393e-005
 561.021,143.553, 6.5994e-003, 1.4460e-005
 562.021,143.894, 6.6135e-003, 1.4343e-005
 563.021,144.235, 6.6279e-003, 1.4079e-005
 564.021,144.575, 6.6426e-003, 1.3728e-005
 565.021,144.916, 6.6572e-003, 1.4096e-005
 566.021,145.255, 6.6719e-003, 1.4736e-005
 567.021,145.596, 6.6862e-003, 1.4052e-005
 568.021,145.938, 6.6996e-003, 1.3868e-005
 569.021,146.279, 6.7146e-003, 1.4726e-005
 570.021,146.622, 6.7290e-003, 1.5153e-005
 571.021,146.965, 6.7432e-003, 1.3472e-005
 572.021,147.306, 6.7575e-003, 1.4364e-005
 573.021,147.647, 6.7722e-003, 1.5015e-005
 574.021,147.989, 6.7867e-003, 1.5271e-005
 575.021,148.331, 6.8012e-003, 1.3829e-005
 576.021,148.674, 6.8149e-003, 1.4994e-005
 577.021,149.017, 6.8300e-003, 1.4697e-005
 578.021,149.36, 6.8449e-003, 1.4040e-005
 579.021,149.704, 6.8597e-003, 1.4557e-005
 580.021,150.049, 6.8745e-003, 1.5541e-005
 581.021,150.397, 6.8887e-003, 1.4273e-005
 582.021,150.744, 6.9033e-003, 1.4607e-005
 583.021,151.09, 6.9183e-003, 1.4452e-005
 584.021,151.435, 6.9320e-003, 1.4562e-005
 585.021,151.78, 6.9468e-003, 1.4529e-005
 586.021,152.126, 6.9606e-003, 1.4572e-005
 587.021,152.471, 6.9756e-003, 1.3994e-005
 588.021,152.817, 6.9897e-003, 1.5271e-005
 589.021,153.163, 7.0038e-003, 1.4666e-005
 590.021,153.51, 7.0183e-003, 1.4016e-005
 591.021,153.858, 7.0330e-003, 1.4796e-005
 592.021,154.204, 7.0463e-003, 1.4149e-005
 593.021,154.551, 7.0605e-003, 1.3967e-005
 594.021,154.897, 7.0748e-003, 1.4846e-005
 595.021,155.244, 7.0896e-003, 1.3818e-005
 596.021,155.591, 7.1040e-003, 1.4728e-005
 597.021,155.939, 7.1188e-003, 1.4446e-005
 598.021,156.286, 7.1333e-003, 1.3975e-005
 599.021,156.634, 7.1483e-003, 1.4513e-005
 600.021,156.982, 7.1629e-003, 1.5422e-005
 601.021,157.33, 7.1778e-003, 1.4320e-005
 602.021,157.681, 7.1929e-003, 1.5276e-005
 603.021,158.034, 7.2085e-003, 1.4834e-005
 604.021,158.387, 7.2235e-003, 1.4920e-005
 605.021,158.743, 7.2394e-003, 1.5270e-005
 606.021,159.103, 7.2551e-003, 1.4739e-005
 607.021,159.464, 7.2707e-003, 1.6144e-005
 608.021,159.825, 7.2863e-003, 1.4985e-005
 609.021,160.184, 7.3007e-003, 1.4776e-005
 610.021,160.54, 7.3159e-003, 1.3513e-005
 611.021,160.893, 7.3294e-003, 1.3008e-005
 612.021,161.24, 7.3431e-003, 1.3556e-005
 613.021,161.584, 7.3568e-003, 1.2897e-005
 614.021,161.924, 7.3699e-003, 1.3324e-005
 615.021,162.262, 7.3834e-003, 1.3863e-005
 616.021,162.599, 7.3968e-003, 1.3294e-005
 617.021,162.936, 7.4107e-003, 1.3820e-005
 618.021,163.274, 7.4248e-003, 1.3880e-005
 619.021,163.614, 7.4384e-003, 1.3017e-005
 620.021,163.956, 7.4527e-003, 1.4712e-005
 621.021,164.298, 7.4664e-003, 1.4336e-005
 622.021,164.643, 7.4800e-003, 1.3115e-005
 623.021,164.988, 7.4944e-003, 1.4127e-005
 624.021,165.333, 7.5080e-003, 1.4546e-005
 625.021,165.678, 7.5223e-003, 1.3911e-005
 626.021,166.024, 7.5359e-003, 1.3269e-005
 627.021,166.371, 7.5506e-003, 1.3710e-005
 628.021,166.718, 7.5650e-003, 1.3496e-005
 629.021,167.067, 7.5792e-003, 1.3879e-005
 630.021,167.417, 7.5924e-003, 1.3775e-005
 631.021,167.769, 7.6070e-003, 1.3735e-005
 632.021,168.123, 7.6215e-003, 1.4699e-005
 633.021,168.477, 7.6354e-003, 1.3807e-005
 634.021,168.832, 7.6497e-003, 1.4351e-005
 635.021,169.187, 7.6639e-003, 1.3600e-005
 636.021,169.542, 7.6775e-003, 1.4174e-005
 637.021,169.897, 7.6920e-003, 1.3720e-005
 638.021,170.253, 7.7059e-003, 1.4246e-005
 639.021,170.609, 7.7193e-003, 1.4534e-005
 640.021,170.966, 7.7336e-003, 1.4038e-005
 641.021,171.324, 7.7482e-003, 1.5060e-005
 642.021,171.683, 7.7621e-003, 1.3446e-005
 643.021,172.042, 7.7758e-003, 1.4007e-005
 644.021,172.401, 7.7906e-003, 1.4108e-005
 645.021,172.761, 7.8040e-003, 1.3092e-005
 646.021,173.121, 7.8181e-003, 1.3567e-005
 647.021,173.482, 7.8322e-003, 1.4244e-005
 648.021,173.843, 7.8465e-003, 1.5244e-005
 649.021,174.203, 7.8607e-003, 1.4615e-005
 650.021,174.564, 7.8743e-003, 1.4481e-005
 651.021,174.925, 7.8878e-003, 1.5164e-005
 652.021,175.287, 7.9021e-003, 1.4062e-005
 653.021,175.65, 7.9157e-003, 1.4713e-005
 654.021,176.012, 7.9299e-003, 1.3403e-005
 655.021,176.376, 7.9436e-003, 1.4733e-005
 656.021,176.74, 7.9571e-003, 1.3605e-005
 657.021,177.102, 7.9720e-003, 1.2425e-005
 658.021,177.463, 7.9848e-003, 1.4533e-005
 659.021,177.825, 7.9992e-003, 1.4065e-005
 660.021,178.19, 8.0130e-003, 1.4176e-005
 661.021,178.555, 8.0269e-003, 1.3533e-005
 662.021,178.921, 8.0412e-003, 1.4918e-005
 663.021,179.286, 8.0554e-003, 1.3178e-005
 664.021,179.651, 8.0695e-003, 1.3197e-005
 665.021,180.015, 8.0840e-003, 1.4603e-005
 666.021,180.38, 8.0981e-003, 1.4438e-005
 667.021,180.746, 8.1118e-003, 1.4593e-005
 668.021,181.111, 8.1261e-003, 1.4233e-005
 669.021,181.478, 8.1401e-003, 1.3900e-005
 670.021,181.844, 8.1543e-003, 1.3699e-005
 671.021,182.209, 8.1678e-003, 1.4035e-005
 672.021,182.575, 8.1822e-003, 1.4659e-005
 673.021,182.944, 8.1964e-003, 1.3728e-005
 674.021,183.312, 8.2107e-003, 1.3714e-005
 675.021,183.682, 8.2256e-003, 1.4742e-005
 676.021,184.051, 8.2402e-003, 1.4565e-005
 677.021,184.423, 8.2551e-003, 1.3973e-005
 678.021,184.799, 8.2704e-003, 1.4277e-005
 679.021,185.176, 8.2856e-003, 1.6774e-005
 680.021,185.554, 8.3011e-003, 1.5256e-005
 681.021,185.936, 8.3160e-003, 1.5214e-005
 682.021,186.316, 8.3315e-003, 1.3777e-005
 683.021,186.696, 8.3454e-003, 1.3613e-005
 684.021,187.074, 8.3596e-003, 1.2925e-005
 685.021,187.446, 8.3734e-003, 1.4071e-005
 686.021,187.815, 8.3878e-003, 1.4936e-005
 687.021,188.179, 8.4005e-003, 1.2304e-005
 688.021,188.54, 8.4135e-003, 1.2659e-005
 689.021,188.899, 8.4266e-003, 1.4099e-005
 690.021,189.259, 8.4404e-003, 1.3752e-005
 691.021,189.62, 8.4546e-003, 1.4358e-005
 692.021,189.982, 8.4684e-003, 1.5014e-005
 693.021,190.345, 8.4826e-003, 1.2926e-005
 694.021,190.71, 8.4959e-003, 1.4089e-005
 695.021,191.078, 8.5102e-003, 1.4754e-005
 696.021,191.448, 8.5247e-003, 1.2947e-005
 697.021,191.82, 8.5382e-003, 1.3504e-005
 698.021,192.192, 8.5522e-003, 1.3568e-005
 699.021,192.564, 8.5664e-003, 1.3651e-005
 700.021,192.937, 8.5802e-003, 1.4051e-005
 701.021,193.311, 8.5942e-003, 1.3516e-005
 702.021,193.687, 8.6083e-003, 1.2861e-005
 703.021,194.063, 8.6220e-003, 1.4039e-005
 704.021,194.442, 8.6366e-003, 1.3861e-005
 705.021,194.821, 8.6506e-003, 1.5070e-005
 706.021,195.2, 8.6644e-003, 1.4609e-005
 707.021,195.578, 8.6781e-003, 1.4181e-005
 708.021,195.957, 8.6927e-003, 1.4754e-005
 709.021,196.336, 8.7068e-003, 1.4678e-005
 710.021,196.716, 8.7209e-003, 1.4380e-005
 711.021,197.096, 8.7353e-003, 1.3014e-005
 712.021,197.478, 8.7488e-003, 1.4342e-005
 713.021,197.86, 8.7629e-003, 1.4235e-005
 714.021,198.24, 8.7768e-003, 1.4689e-005
 715.021,198.621, 8.7913e-003, 1.2784e-005
 716.021,199.004, 8.8052e-003, 1.3601e-005
 717.021,199.385, 8.8196e-003, 1.4442e-005
 718.021,199.766, 8.8334e-003, 1.5212e-005
 719.021,200.147, 8.8478e-003, 1.3837e-005
 720.021,200.531, 8.8615e-003, 1.4155e-005
 721.021,200.914, 8.8762e-003, 1.3747e-005
 722.021,201.297, 8.8906e-003, 1.4151e-005
 723.021,201.68, 8.9045e-003, 1.4604e-005
 724.021,202.064, 8.9182e-003, 1.4611e-005
 725.021,202.447, 8.9327e-003, 1.4297e-005
 726.021,202.83, 8.9468e-003, 1.4211e-005
 727.021,203.212, 8.9609e-003, 1.5536e-005
 728.021,203.594, 8.9752e-003, 1.4962e-005
 729.021,203.978, 8.9892e-003, 1.3662e-005
 730.021,204.364, 9.0039e-003, 1.4455e-005
 731.021,204.748, 9.0177e-003, 1.4482e-005
 732.021,205.131, 9.0318e-003, 1.3110e-005
 733.021,205.513, 9.0463e-003, 1.4579e-005
 734.021,205.896, 9.0600e-003, 1.3367e-005
 735.021,206.282, 9.0745e-003, 1.4445e-005
 736.021,206.667, 9.0885e-003, 1.4078e-005
 737.021,207.053, 9.1033e-003, 1.4735e-005
 738.021,207.439, 9.1170e-003, 1.3906e-005
 739.021,207.822, 9.1309e-003, 1.4960e-005
 740.021,208.204, 9.1449e-003, 1.4063e-005
 741.021,208.59, 9.1583e-003, 1.4490e-005
 742.021,208.976, 9.1728e-003, 1.4724e-005
 743.021,209.36, 9.1874e-003, 1.4114e-005
 744.021,209.744, 9.2014e-003, 1.3590e-005
 745.021,210.128, 9.2159e-003, 1.4479e-005
 746.021,210.511, 9.2302e-003, 1.5405e-005
 747.021,210.896, 9.2442e-003, 1.4606e-005
 748.021,211.284, 9.2586e-003, 1.4232e-005
 749.021,211.673, 9.2738e-003, 1.5086e-005
 750.021,212.064, 9.2894e-003, 1.5757e-005
 751.021,212.459, 9.3040e-003, 1.4399e-005
 752.021,212.855, 9.3189e-003, 1.5274e-005
 753.021,213.252, 9.3343e-003, 1.6381e-005
 754.021,213.65, 9.3493e-003, 1.4010e-005
 755.021,214.047, 9.3637e-003, 1.3577e-005
 756.021,214.442, 9.3777e-003, 1.3905e-005
 757.021,214.83, 9.3908e-003, 1.3459e-005
 758.021,215.211, 9.4042e-003, 1.4612e-005
 759.021,215.589, 9.4171e-003, 1.3049e-005
 760.021,215.966, 9.4304e-003, 1.4464e-005
 761.021,216.342, 9.4438e-003, 1.3297e-005
 762.021,216.717, 9.4573e-003, 1.2919e-005
 763.021,217.091, 9.4709e-003, 1.2736e-005
 764.021,217.466, 9.4852e-003, 1.3143e-005
 765.021,217.842, 9.4980e-003, 1.2796e-005
 766.021,218.22, 9.5110e-003, 1.3695e-005
 767.021,218.601, 9.5248e-003, 1.4011e-005
 768.021,218.981, 9.5381e-003, 1.2916e-005
 769.021,219.36, 9.5514e-003, 1.2576e-005
 770.021,219.74, 9.5650e-003, 1.3369e-005
 771.021,220.121, 9.5784e-003, 1.2737e-005
 772.021,220.503, 9.5922e-003, 1.3360e-005
 773.021,220.885, 9.6054e-003, 1.3588e-005
 774.021,221.267, 9.6193e-003, 1.4175e-005
 775.021,221.649, 9.6327e-003, 1.4128e-005
 776.021,222.032, 9.6471e-003, 1.4848e-005
 777.021,222.417, 9.6600e-003, 1.4115e-005
 778.021,222.804, 9.6736e-003, 1.3043e-005
 779.021,223.193, 9.6869e-003, 1.4214e-005
 780.021,223.581, 9.7001e-003, 1.3761e-005
 781.021,223.969, 9.7137e-003, 1.1961e-005
 782.021,224.356, 9.7267e-003, 1.3619e-005
 783.021,224.745, 9.7401e-003, 1.2723e-005
 784.021,225.135, 9.7535e-003, 1.3564e-005
 785.021,225.526, 9.7666e-003, 1.4285e-005
 786.021,225.917, 9.7797e-003, 1.2469e-005
 787.021,226.308, 9.7936e-003, 1.3344e-005
 788.021,226.703, 9.8072e-003, 1.2875e-005
 789.021,227.108, 9.8214e-003, 1.3664e-005
 790.021,227.52, 9.8352e-003, 1.4638e-005
 791.021,227.935, 9.8486e-003, 1.3876e-005
 792.021,228.348, 9.8624e-003, 1.3651e-005
 793.021,228.763, 9.8763e-003, 1.3729e-005
 794.021,229.182, 9.8898e-003, 1.2073e-005
 795.021,229.607, 9.9042e-003, 1.4130e-005
 796.021,230.035, 9.9180e-003, 1.2530e-005
 797.021,230.469, 9.9316e-003, 1.4812e-005
 798.021,230.903, 9.9458e-003, 1.3002e-005
 799.021,231.333, 9.9584e-003, 1.4117e-005
 800.021,231.758, 9.9718e-003, 1.3616e-005
 801.021,232.179, 9.9849e-003, 1.2951e-005
 802.021,232.6, 9.9986e-003, 1.3385e-005
 803.021,233.025, 1.0012e-002, 1.5353e-005
 804.021,233.458, 1.0026e-002, 1.5285e-005
 805.021,233.897, 1.0041e-002, 1.4595e-005
 806.021,234.336, 1.0055e-002, 1.3194e-005
 807.021,234.772, 1.0067e-002, 1.3791e-005
 808.021,235.202, 1.0081e-002, 1.2817e-005
 809.021,235.627, 1.0093e-002, 1.3024e-005
 810.021,236.053, 1.0107e-002, 1.2865e-005
 811.021,236.483, 1.0120e-002, 1.3690e-005
 812.021,236.912, 1.0134e-002, 1.3978e-005
 813.021,237.337, 1.0148e-002, 1.2269e-005
 814.021,237.758, 1.0161e-002, 1.3331e-005
 815.021,238.175, 1.0175e-002, 1.2569e-005
 816.021,238.588, 1.0187e-002, 1.2681e-005
 817.021,239, 1.0201e-002, 1.3513e-005
 818.021,239.41, 1.0215e-002, 1.3745e-005
 819.021,239.819, 1.0228e-002, 1.3354e-005
 820.021,240.225, 1.0241e-002, 1.3050e-005
 821.021,240.629, 1.0253e-002, 1.1348e-005
 822.021,241.027, 1.0265e-002, 1.4014e-005
 823.021,241.419, 1.0277e-002, 1.2070e-005
 824.021,241.808, 1.0290e-002, 1.2461e-005
 825.021,242.196, 1.0302e-002, 1.2712e-005
 826.021,242.586, 1.0316e-002, 1.3777e-005
 827.021,242.975, 1.0328e-002, 1.3954e-005
 828.021,243.363, 1.0341e-002, 1.3042e-005
 829.021,243.751, 1.0354e-002, 1.4814e-005
 830.021,244.139, 1.0367e-002, 1.3327e-005
 831.021,244.526, 1.0380e-002, 1.1788e-005
 832.021,244.913, 1.0392e-002, 1.3419e-005
 833.021,245.3, 1.0404e-002, 1.3290e-005
 834.021,245.687, 1.0418e-002, 1.1234e-005
 835.021,246.075, 1.0431e-002, 1.4372e-005
 836.021,246.463, 1.0443e-002, 1.1617e-005
 837.021,246.853, 1.0454e-002, 1.2140e-005
 838.021,247.25, 1.0467e-002, 1.3755e-005
 839.021,247.649, 1.0480e-002, 1.2226e-005
 840.021,248.047, 1.0494e-002, 1.4294e-005
 841.021,248.443, 1.0507e-002, 1.4958e-005
 842.021,248.837, 1.0521e-002, 1.4277e-005
 843.021,249.227, 1.0534e-002, 1.3648e-005
 844.021,249.615, 1.0547e-002, 1.3240e-005
 845.021,249.999, 1.0561e-002, 1.3734e-005
 846.021,250.379, 1.0573e-002, 1.2912e-005
 847.021,250.761, 1.0586e-002, 1.2086e-005
 848.021,251.145, 1.0599e-002, 1.3021e-005
 849.021,251.529, 1.0612e-002, 1.4093e-005
 850.021,251.916, 1.0625e-002, 1.4114e-005
 851.021,252.303, 1.0638e-002, 1.3824e-005
 852.021,252.688, 1.0651e-002, 1.1637e-005
 853.021,253.074, 1.0664e-002, 1.1444e-005
 854.021,253.459, 1.0677e-002, 1.2083e-005
 855.021,253.844, 1.0690e-002, 1.2641e-005
 856.021,254.229, 1.0703e-002, 1.4185e-005
 857.021,254.613, 1.0716e-002, 1.2253e-005
 858.021,254.998, 1.0729e-002, 1.2650e-005
 859.021,255.385, 1.0741e-002, 1.3074e-005
 860.021,255.774, 1.0754e-002, 1.1709e-005
 861.021,256.163, 1.0767e-002, 1.3429e-005
 862.021,256.553, 1.0780e-002, 1.3667e-005
 863.021,256.944, 1.0793e-002, 1.2787e-005
 864.021,257.336, 1.0805e-002, 1.4512e-005
 865.021,257.731, 1.0819e-002, 1.2610e-005
 866.021,258.133, 1.0832e-002, 1.3381e-005
 867.021,258.55, 1.0846e-002, 1.3405e-005
 868.021,259.005, 1.0863e-002, 1.8374e-005
 869.021,259.504, 1.0880e-002, 1.4150e-005
 870.021,260.001, 1.0894e-002, 1.4079e-005
 871.021,260.468, 1.0909e-002, 1.1951e-005
 872.021,260.904, 1.0921e-002, 1.2503e-005
 873.021,261.314, 1.0932e-002, 1.3480e-005
 874.021,261.705, 1.0944e-002, 1.0397e-005
 875.021,262.088, 1.0956e-002, 1.4445e-005
 876.021,262.47, 1.0969e-002, 1.2361e-005
 877.021,262.855, 1.0982e-002, 1.2616e-005
 878.021,263.239, 1.0994e-002, 1.0062e-005
 879.021,263.623, 1.1006e-002, 1.3095e-005
 880.021,264.009, 1.1018e-002, 1.2763e-005
 881.021,264.398, 1.1032e-002, 1.1713e-005
 882.021,264.791, 1.1043e-002, 1.2410e-005
 883.021,265.182, 1.1056e-002, 1.0760e-005
 884.021,265.572, 1.1067e-002, 1.1905e-005
 885.021,265.964, 1.1079e-002, 1.2498e-005
 886.021,266.354, 1.1092e-002, 1.2182e-005
 887.021,266.744, 1.1103e-002, 1.2510e-005
 888.021,267.137, 1.1115e-002, 1.3460e-005
 889.021,267.529, 1.1128e-002, 1.3026e-005
 890.021,267.921, 1.1140e-002, 1.3451e-005
 891.021,268.315, 1.1152e-002, 1.3901e-005
 892.021,268.707, 1.1165e-002, 9.2696e-006
 893.021,269.1, 1.1177e-002, 1.3430e-005
 894.021,269.494, 1.1190e-002, 1.2023e-005
 895.021,269.889, 1.1202e-002, 1.0334e-005
 896.021,270.283, 1.1215e-002, 1.1262e-005
 897.021,270.679, 1.1228e-002, 1.3558e-005
 898.021,271.079, 1.1240e-002, 1.3797e-005
 899.021,271.478, 1.1253e-002, 1.2855e-005
 900.021,271.876, 1.1265e-002, 1.3851e-005
 901.021,272.274, 1.1278e-002, 1.4585e-005
 902.021,272.675, 1.1290e-002, 1.2475e-005
 903.021,273.081, 1.1302e-002, 1.2326e-005
 904.021,273.489, 1.1316e-002, 1.3702e-005
 905.021,273.899, 1.1328e-002, 1.2611e-005
 906.021,274.312, 1.1340e-002, 7.5947e-006
 907.021,274.726, 1.1351e-002, 1.3759e-005
 908.021,275.14, 1.1364e-002, 1.4439e-005
 909.021,275.556, 1.1376e-002, 1.4220e-005
 910.021,275.977, 1.1389e-002, 9.7464e-006
 911.021,276.409, 1.1401e-002, 1.3236e-005
 912.021,276.868, 1.1415e-002, 1.5526e-005
 913.021,277.372, 1.1430e-002, 1.6595e-005
 914.021,277.955, 1.1447e-002, 1.8101e-005
 915.021,278.558, 1.1460e-002, 6.4299e-006
 916.021,279.058, 1.1468e-002, 5.5838e-006
 917.021,279.478, 1.1477e-002, 7.3557e-006
 918.021,279.848, 1.1485e-002, 1.0271e-005
 919.021,280.202, 1.1496e-002, 1.4049e-005
 920.021,280.569, 1.1510e-002, 1.3913e-005
 921.021,280.955, 1.1524e-002, 1.3282e-005
 922.021,281.347, 1.1537e-002, 1.1970e-005
 923.021,281.74, 1.1550e-002, 1.3054e-005
 924.021,282.137, 1.1563e-002, 1.1772e-005
 925.021,282.539, 1.1576e-002, 1.4563e-005
 926.021,282.947, 1.1590e-002, 1.1930e-005
 927.021,283.352, 1.1602e-002, 1.3453e-005
 928.021,283.755, 1.1614e-002, 1.0901e-005
 929.021,284.156, 1.1624e-002, 1.0646e-005
 930.021,284.549, 1.1636e-002, 1.1247e-005
 931.021,284.933, 1.1647e-002, 1.3105e-005
 932.021,285.313, 1.1659e-002, 1.2629e-005
 933.021,285.696, 1.1671e-002, 1.2015e-005
 934.021,286.082, 1.1682e-002, 1.2680e-005
 935.021,286.467, 1.1694e-002, 1.2387e-005
 936.021,286.849, 1.1706e-002, 1.1393e-005
 937.021,287.223, 1.1717e-002, 1.0622e-005
 938.021,287.593, 1.1729e-002, 1.0844e-005
 939.021,287.964, 1.1741e-002, 1.0343e-005
 940.021,288.336, 1.1753e-002, 1.2227e-005
 941.021,288.711, 1.1765e-002, 1.2430e-005
 942.021,289.089, 1.1778e-002, 1.2420e-005
 943.021,289.468, 1.1789e-002, 1.2270e-005
 944.021,289.843, 1.1801e-002, 1.2794e-005
 945.021,290.216, 1.1813e-002, 1.3368e-005
 946.021,290.59, 1.1825e-002, 1.2971e-005
 947.021,290.968, 1.1838e-002, 1.0899e-005
 948.021,291.347, 1.1850e-002, 1.2216e-005
 949.021,291.724, 1.1862e-002, 1.2440e-005
 950.021,292.101, 1.1874e-002, 1.1916e-005
 951.021,292.473, 1.1886e-002, 1.2205e-005
 952.021,292.849, 1.1898e-002, 1.3582e-005
 953.021,293.228, 1.1912e-002, 1.0429e-005
 954.021,293.605, 1.1923e-002, 1.1198e-005
 955.021,293.979, 1.1935e-002, 1.2491e-005
 956.021,294.348, 1.1947e-002, 1.2484e-005
 957.021,294.717, 1.1959e-002, 1.2108e-005
 958.021,295.09, 1.1972e-002, 1.3818e-005
 959.021,295.463, 1.1984e-002, 1.1271e-005
 960.021,295.836, 1.1996e-002, 1.3254e-005
 961.021,296.209, 1.2008e-002, 1.1136e-005
 962.021,296.581, 1.2021e-002, 1.2164e-005
 963.021,296.949, 1.2033e-002, 1.3387e-005
 964.021,297.317, 1.2045e-002, 1.2759e-005
 965.021,297.685, 1.2058e-002, 1.4039e-005
 966.021,298.054, 1.2071e-002, 1.4108e-005
 967.021,298.422, 1.2083e-002, 1.1151e-005
 968.021,298.787, 1.2095e-002, 1.3744e-005
 969.021,299.151, 1.2107e-002, 1.2934e-005
 970.021,299.518, 1.2120e-002, 1.4151e-005
 971.021,299.889, 1.2133e-002, 1.4157e-005
 972.021,300.268, 1.2146e-002, 1.4761e-005
 973.021,300.655, 1.2159e-002, 1.4047e-005
 974.021,301.045, 1.2174e-002, 1.6197e-005
 975.021,301.435, 1.2187e-002, 1.3782e-005
 976.021,301.822, 1.2199e-002, 1.4134e-005
 977.021,302.203, 1.2210e-002, 1.2972e-005
 978.021,302.576, 1.2221e-002, 1.3124e-005
 979.021,302.946, 1.2235e-002, 8.1630e-006
 980.021,303.316, 1.2247e-002, 1.3293e-005
 981.021,303.684, 1.2258e-002, 1.3324e-005
 982.021,304.052, 1.2270e-002, 9.5078e-006
 983.021,304.42, 1.2283e-002, 6.7319e-006
 984.021,304.785, 1.2294e-002, 1.3024e-005
 985.021,305.145, 1.2305e-002, 1.2802e-005
 986.021,305.505, 1.2316e-002, 1.3352e-005
 987.021,305.866, 1.2330e-002, 1.1889e-005
 988.021,306.229, 1.2341e-002, 1.3001e-005
 989.021,306.595, 1.2352e-002, 4.0337e-006
 990.021,306.964, 1.2366e-002, 1.4331e-005
 991.021,307.331, 1.2376e-002, 1.3001e-005
 992.021,307.695, 1.2389e-002, 6.5775e-006
 993.021,308.061, 1.2400e-002, 1.1082e-005
 994.021,308.431, 1.2412e-002, 1.3457e-005
 995.021,308.8, 1.2424e-002, 1.0754e-005
 996.021,309.168, 1.2435e-002, 1.3316e-005
 997.021,309.536, 1.2449e-002, 1.2691e-005
 998.021,309.903, 1.2459e-002, 1.3812e-005
 999.021,310.271, 1.2473e-002, 1.3019e-005
1000.02,310.639, 1.2483e-002, 1.3016e-005
1001.02,311.007, 1.2496e-002, 1.3988e-005
1002.02,311.375, 1.2510e-002, 1.2814e-005
1003.02,311.74, 1.2522e-002, 1.1601e-005
1004.02,312.104, 1.2535e-002, 1.2924e-005
1005.02,312.469, 1.2548e-002, 1.3271e-005
1006.02,312.838, 1.2560e-002, 1.4953e-005
1007.02,313.213, 1.2574e-002, 1.3822e-005
1008.02,313.591, 1.2587e-002, 1.3061e-005
1009.02,313.967, 1.2600e-002, 1.2132e-005
1010.02,314.338, 1.2612e-002, 1.2212e-005
1011.02,314.702, 1.2625e-002, 1.2923e-005
1012.02,315.062, 1.2637e-002, 1.2078e-005
1013.02,315.425, 1.2649e-002, 1.2716e-005
1014.02,315.791, 1.2662e-002, 1.3985e-005
1015.02,316.159, 1.2676e-002, 1.2456e-005
1016.02,316.527, 1.2688e-002, 1.1778e-005
1017.02,316.899, 1.2702e-002, 1.3285e-005
1018.02,317.276, 1.2717e-002, 1.3968e-005
1019.02,317.656, 1.2731e-002, 1.3651e-005
1020.02,318.037, 1.2744e-002, 1.3396e-005
1021.02,318.427, 1.2758e-002, 1.3415e-005
1022.02,318.828, 1.2771e-002, 1.3287e-005
1023.02,319.235, 1.2785e-002, 1.3962e-005
1024.02,319.641, 1.2798e-002, 1.1695e-005
1025.02,320.035, 1.2809e-002, 1.1860e-005
1026.02,320.418, 1.2821e-002, 1.2079e-005
1027.02,320.795, 1.2833e-002, 1.2754e-005
1028.02,321.171, 1.2845e-002, 1.2179e-005
1029.02,321.552, 1.2857e-002, 1.2748e-005
1030.02,321.935, 1.2869e-002, 1.1096e-005
1031.02,322.316, 1.2877e-002, 9.2613e-006
1032.02,322.7, 1.2889e-002, 1.1443e-005
1033.02,323.084, 1.2901e-002, 1.0694e-005
1034.02,323.46, 1.2910e-002, 1.0078e-005
1035.02,323.831, 1.2921e-002, 1.1517e-005
1036.02,324.201, 1.2933e-002, 1.0906e-005
1037.02,324.574, 1.2944e-002, 1.2110e-005
1038.02,324.946, 1.2955e-002, 1.0279e-005
1039.02,325.304, 1.2966e-002, 1.0561e-005
1040.02,325.647, 1.2975e-002, 1.0945e-005
1041.02,325.993, 1.2987e-002, 1.1923e-005
1042.02,326.352, 1.2999e-002, 1.1251e-005
1043.02,326.718, 1.3010e-002, 1.1838e-005
1044.02,327.085, 1.3021e-002, 1.0612e-005
1045.02,327.447, 1.3032e-002, 1.0414e-005
1046.02,327.807, 1.3043e-002, 1.1255e-005
1047.02,328.168, 1.3054e-002, 1.2141e-005
1048.02,328.534, 1.3066e-002, 1.1722e-005
1049.02,328.898, 1.3077e-002, 1.0510e-005
1050.02,329.257, 1.3087e-002, 1.0410e-005
1051.02,329.62, 1.3099e-002, 1.4639e-005
1052.02,329.982, 1.3111e-002, 1.0179e-005
1053.02,330.321, 1.3120e-002, 8.8094e-006
1054.02,330.64, 1.3130e-002, 1.0299e-005
1055.02,330.955, 1.3141e-002, 1.0823e-005
1056.02,331.279, 1.3154e-002, 1.3055e-005