File: data/8.1mm/oligHawk010s1r3-8.25mm.csv
#EXPORTTYPE:           ,DATA ALL
#FILE:                 ,oligHawk010s1r3.ngb-sle
#FORMAT:               ,NETZSCH5
#FTYPE:                ,ANSI
#IDENTITY:             ,oligioclase
#DECIMAL:              ,POINT
#SEPARATOR:            ,COMMA
#MTYPE:                ,DIL
#INSTRUMENT:           ,NETZSCH DIL 402C
#PROJECT:              ,feldspar
#DATE/TIME:            ,8/24/2019 10:12:59 AM (UTC-5)
#CORR. FILE:           ,
#TEMPCAL:              ,TCALZERO.TMX
#LABORATORY:           ,Mineral Physics
#OPERATOR:             ,PAG
#REMARK:               ,bare, norm start, for short plageioclase, sapphire, same crystal as 001
#SAMPLE:               ,hawk mine 010
#SAMPLE LENGTH /mm:    ,8.25
#MATERIAL:             ,sapphire stnd
#MEASMODE:             ,Standard Expansion
#PURGE GAS 1:          ,ARGON
#FLOW RATE 1 /(ml/min):,75
#M.RANGE /µm:          ,500
#CORR. CODE:           ,010
#RANGE:                ,20.0°C/3.0(K/min)/1010.0°C
#SEGMENT:              ,S1/1
#SEG. 1:               ,20.0°C/3.0(K/min)/1010.0°C

##Temp./°C,Time/min,dL/Lo,Alpha/(1/K)
  21.53000,  0.00000, 1.5194e-005, 5.4781e-006
  22.53000,  4.42213, 2.9747e-006,-1.9520e-005
  23.53000,  4.91933,-1.5849e-005,-1.6374e-005
  24.53000,  5.28089,-3.0397e-005,-1.2973e-005
  25.53000,  5.58283,-4.2443e-005,-1.0925e-005
  26.53000,  5.85218,-5.2422e-005,-9.0510e-006
  27.53000,  6.10092,-6.0093e-005,-6.3585e-006
  28.53000,  6.33643,-6.6067e-005,-4.9625e-006
  29.53000,  6.56398,-7.0054e-005,-4.1216e-006
  30.53000,  6.78610,-7.3331e-005,-2.5149e-006
  31.53000,  7.00340,-7.4811e-005,-1.0018e-006
  32.53000,  7.21699,-7.4934e-005, 5.5212e-007
  33.53000,  7.42847,-7.4041e-005, 1.7264e-006
  34.53000,  7.63909,-7.2486e-005, 2.2001e-006
  35.53000,  7.85000,-6.9312e-005, 2.9300e-006
  36.53000,  8.06071,-6.5764e-005, 4.4908e-006
  37.53000,  8.27094,-6.1317e-005, 4.4469e-006
  38.53000,  8.48097,-5.6217e-005, 6.0133e-006
  39.53000,  8.69064,-5.0689e-005, 5.9394e-006
  40.53000,  8.89909,-4.4293e-005, 6.4886e-006
  41.53000,  9.10682,-3.7409e-005, 7.1180e-006
  42.53000,  9.31330,-3.0027e-005, 7.4511e-006
  43.53000,  9.51900,-2.2623e-005, 7.5882e-006
  44.53000,  9.72342,-1.4883e-005, 8.1256e-006
  45.53000,  9.92632,-6.7966e-006, 8.0322e-006
  46.53000, 10.12706, 1.3748e-006, 8.2284e-006
  47.53000, 10.32674, 9.8716e-006, 8.6568e-006
  48.53000, 10.52471, 1.8572e-005, 8.4312e-006
  49.53000, 10.72144, 2.7139e-005, 8.6953e-006
  50.53000, 10.91728, 3.5820e-005, 9.1550e-006
  51.53000, 11.11145, 4.5068e-005, 8.9698e-006
  52.53000, 11.30464, 5.4149e-005, 9.4331e-006
  53.53000, 11.49700, 6.3777e-005, 9.3155e-006
  54.53000, 11.68863, 7.3540e-005, 1.0064e-005
  55.53000, 11.87949, 8.3185e-005, 1.0023e-005
  56.53000, 12.06996, 9.3117e-005, 1.0521e-005
  57.53000, 12.26026, 1.0342e-004, 1.0535e-005
  58.53000, 12.45003, 1.1434e-004, 1.0686e-005
  59.53000, 12.63994, 1.2552e-004, 1.1053e-005
  60.53000, 12.82884, 1.3693e-004, 1.1233e-005
  61.53000, 13.01720, 1.4824e-004, 1.1694e-005
  62.53000, 13.20517, 1.5994e-004, 1.1951e-005
  63.53000, 13.39319, 1.7219e-004, 1.3046e-005
  64.53000, 13.58157, 1.8507e-004, 1.2674e-005
  65.53000, 13.77054, 1.9774e-004, 1.2918e-005
  66.53000, 13.95970, 2.1029e-004, 1.2850e-005
  67.53000, 14.14894, 2.2299e-004, 1.2885e-005
  68.53000, 14.33825, 2.3599e-004, 1.3116e-005
  69.53000, 14.52741, 2.4915e-004, 1.3025e-005
  70.53000, 14.71696, 2.6202e-004, 1.3295e-005
  71.53000, 14.90644, 2.7506e-004, 1.3003e-005
  72.53000, 15.09636, 2.8824e-004, 1.2917e-005
  73.53000, 15.28651, 3.0169e-004, 1.3294e-005
  74.53000, 15.47681, 3.1465e-004, 1.2948e-005
  75.53000, 15.66734, 3.2801e-004, 1.3141e-005
  76.53000, 15.85830, 3.4151e-004, 1.3296e-005
  77.53000, 16.04928, 3.5472e-004, 1.3359e-005
  78.53000, 16.24038, 3.6807e-004, 1.3640e-005
  79.53000, 16.43182, 3.8118e-004, 1.3655e-005
  80.53000, 16.62341, 3.9526e-004, 1.3717e-005
  81.53000, 16.81565, 4.0891e-004, 1.3088e-005
  82.53000, 17.00825, 4.2236e-004, 1.3993e-005
  83.53000, 17.20127, 4.3611e-004, 1.3651e-005
  84.53000, 17.39455, 4.5048e-004, 1.3750e-005
  85.53000, 17.58836, 4.6416e-004, 1.4305e-005
  86.53000, 17.78251, 4.7823e-004, 1.3889e-005
  87.53000, 17.97695, 4.9210e-004, 1.4045e-005
  88.53000, 18.17190, 5.0628e-004, 1.4169e-005
  89.53000, 18.36727, 5.2065e-004, 1.3924e-005
  90.53000, 18.56285, 5.3430e-004, 1.4356e-005
  91.53000, 18.75902, 5.4941e-004, 1.4394e-005
  92.53000, 18.95565, 5.6312e-004, 1.4089e-005
  93.53000, 19.15269, 5.7795e-004, 1.4765e-005
  94.53000, 19.35038, 5.9232e-004, 1.4624e-005
  95.53000, 19.54828, 6.0717e-004, 1.4601e-005
  96.53000, 19.74627, 6.2123e-004, 1.4366e-005
  97.53000, 19.94463, 6.3607e-004, 1.4482e-005
  98.53000, 20.14311, 6.5084e-004, 1.4428e-005
  99.53000, 20.34210, 6.6501e-004, 1.4725e-005
 100.53, 20.54154, 6.7999e-004, 1.5064e-005
 101.53, 20.74135, 6.9418e-004, 1.4043e-005
 102.53, 20.94135, 7.0921e-004, 1.4759e-005
 103.53, 21.14171, 7.2355e-004, 1.4685e-005
 104.53, 21.34221, 7.3813e-004, 1.4598e-005
 105.53, 21.54321, 7.5295e-004, 1.4591e-005
 106.53, 21.74463, 7.6785e-004, 1.4798e-005
 107.53, 21.94608, 7.8260e-004, 1.4931e-005
 108.53, 22.14785, 7.9762e-004, 1.4587e-005
 109.53, 22.35005, 8.1224e-004, 1.4918e-005
 110.53, 22.55332, 8.2705e-004, 1.4515e-005
 111.53, 22.75698, 8.4155e-004, 1.4860e-005
 112.53, 22.96084, 8.5706e-004, 1.5156e-005
 113.53, 23.16497, 8.7194e-004, 1.4937e-005
 114.53, 23.36902, 8.8676e-004, 1.4906e-005
 115.53, 23.57349, 9.0144e-004, 1.4609e-005
 116.53, 23.77823, 9.1625e-004, 1.5198e-005
 117.53, 23.98333, 9.3137e-004, 1.4962e-005
 118.53, 24.18866, 9.4652e-004, 1.4908e-005
 119.53, 24.39391, 9.6168e-004, 1.5129e-005
 120.53, 24.59949, 9.7719e-004, 1.4599e-005
 121.53, 24.80511, 9.9179e-004, 1.4951e-005
 122.53, 25.01137, 1.0067e-003, 1.5264e-005
 123.53, 25.21762, 1.0219e-003, 1.4978e-005
 124.53, 25.42417, 1.0370e-003, 1.5511e-005
 125.53, 25.63059, 1.0522e-003, 1.5064e-005
 126.53, 25.83746, 1.0674e-003, 1.4923e-005
 127.53, 26.04470, 1.0826e-003, 1.5272e-005
 128.53, 26.25261, 1.0973e-003, 1.5207e-005
 129.53, 26.46072, 1.1127e-003, 1.4840e-005
 130.53, 26.66917, 1.1279e-003, 1.4788e-005
 131.53, 26.87809, 1.1431e-003, 1.5232e-005
 132.53, 27.08714, 1.1587e-003, 1.5307e-005
 133.53, 27.29630, 1.1740e-003, 1.6047e-005
 134.53, 27.50537, 1.1895e-003, 1.4969e-005
 135.53, 27.71449, 1.2042e-003, 1.5131e-005
 136.53, 27.92398, 1.2197e-003, 1.4870e-005
 137.53, 28.13460, 1.2348e-003, 1.5078e-005
 138.53, 28.34504, 1.2494e-003, 1.5242e-005
 139.53, 28.55607, 1.2645e-003, 1.4886e-005
 140.53, 28.76713, 1.2795e-003, 1.5461e-005
 141.53, 28.97802, 1.2945e-003, 1.5508e-005
 142.53, 29.18964, 1.3100e-003, 1.4877e-005
 143.53, 29.40134, 1.3250e-003, 1.5982e-005
 144.53, 29.61419, 1.3406e-003, 1.4911e-005
 145.53, 29.82730, 1.3548e-003, 1.4476e-005
 146.53, 30.04058, 1.3696e-003, 1.4889e-005
 147.53, 30.25382, 1.3843e-003, 1.4920e-005
 148.53, 30.46730, 1.3997e-003, 1.5063e-005
 149.53, 30.68086, 1.4145e-003, 1.4881e-005
 150.53, 30.89456, 1.4291e-003, 1.4492e-005
 151.53, 31.10820, 1.4433e-003, 1.4095e-005
 152.53, 31.32197, 1.4575e-003, 1.4349e-005
 153.53, 31.53627, 1.4718e-003, 1.4214e-005
 154.53, 31.75071, 1.4860e-003, 1.4229e-005
 155.53, 31.96566, 1.4996e-003, 1.4228e-005
 156.53, 32.18083, 1.5136e-003, 1.3738e-005
 157.53, 32.39590, 1.5277e-003, 1.2944e-005
 158.53, 32.61077, 1.5413e-003, 1.3454e-005
 159.53, 32.82583, 1.5543e-003, 1.4201e-005
 160.53, 33.04103, 1.5681e-003, 1.3213e-005
 161.53, 33.25647, 1.5813e-003, 1.3451e-005
 162.53, 33.47246, 1.5942e-003, 1.2687e-005
 163.53, 33.68891, 1.6072e-003, 1.2328e-005
 164.53, 33.90553, 1.6196e-003, 1.2940e-005
 165.53, 34.12209, 1.6324e-003, 1.1586e-005
 166.53, 34.33879, 1.6437e-003, 1.0979e-005
 167.53, 34.55591, 1.6552e-003, 1.1902e-005
 168.53, 34.77324, 1.6666e-003, 1.0460e-005
 169.53, 34.99092, 1.6771e-003, 1.0377e-005
 170.53, 35.20901, 1.6872e-003, 9.9643e-006
 171.53, 35.42786, 1.6968e-003, 9.8403e-006
 172.53, 35.64705, 1.7065e-003, 9.6486e-006
 173.53, 35.86649, 1.7166e-003, 1.0295e-005
 174.53, 36.08602, 1.7270e-003, 1.1081e-005
 175.53, 36.30553, 1.7379e-003, 1.1699e-005
 176.53, 36.52498, 1.7498e-003, 1.2292e-005
 177.53, 36.74476, 1.7626e-003, 1.3041e-005
 178.53, 36.96467, 1.7764e-003, 1.3424e-005
 179.53, 37.18528, 1.7907e-003, 1.4665e-005
 180.53, 37.40571, 1.8049e-003, 1.4867e-005
 181.53, 37.62646, 1.8199e-003, 1.4504e-005
 182.53, 37.84763, 1.8347e-003, 1.4995e-005
 183.53, 38.06942, 1.8499e-003, 1.5122e-005
 184.53, 38.29152, 1.8649e-003, 1.5442e-005
 185.53, 38.51368, 1.8803e-003, 1.5275e-005
 186.53, 38.73587, 1.8953e-003, 1.5517e-005
 187.53, 38.95841, 1.9110e-003, 1.6059e-005
 188.53, 39.18104, 1.9265e-003, 1.5483e-005
 189.53, 39.40396, 1.9419e-003, 1.5181e-005
 190.53, 39.62687, 1.9575e-003, 1.5486e-005
 191.53, 39.85007, 1.9728e-003, 1.5795e-005
 192.53, 40.07376, 1.9885e-003, 1.5268e-005
 193.53, 40.29772, 2.0041e-003, 1.5356e-005
 194.53, 40.52155, 2.0200e-003, 1.5382e-005
 195.53, 40.74581, 2.0355e-003, 1.5578e-005
 196.53, 40.97031, 2.0511e-003, 1.6080e-005
 197.53, 41.19554, 2.0672e-003, 1.5660e-005
 198.53, 41.42088, 2.0827e-003, 1.5868e-005
 199.53, 41.64632, 2.0985e-003, 1.5621e-005
 200.53, 41.87187, 2.1138e-003, 1.5470e-005
 201.53, 42.09798, 2.1299e-003, 1.6218e-005
 202.53, 42.32460, 2.1453e-003, 1.6026e-005
 203.53, 42.55190, 2.1609e-003, 1.6538e-005
 204.53, 42.77951, 2.1768e-003, 1.5627e-005
 205.53, 43.00784, 2.1931e-003, 1.5917e-005
 206.53, 43.23615, 2.2084e-003, 1.5640e-005
 207.53, 43.46504, 2.2245e-003, 1.4962e-005
 208.53, 43.69364, 2.2404e-003, 1.5612e-005
 209.53, 43.92207, 2.2561e-003, 1.5921e-005
 210.53, 44.15022, 2.2717e-003, 1.5009e-005
 211.53, 44.37835, 2.2872e-003, 1.5794e-005
 212.53, 44.60737, 2.3030e-003, 1.6076e-005
 213.53, 44.83652, 2.3184e-003, 1.5438e-005
 214.53, 45.06574, 2.3347e-003, 1.5557e-005
 215.53, 45.29533, 2.3503e-003, 1.5987e-005
 216.53, 45.52575, 2.3658e-003, 1.5862e-005
 217.53, 45.75681, 2.3821e-003, 1.5822e-005
 218.53, 45.98805, 2.3981e-003, 1.5501e-005
 219.53, 46.21945, 2.4136e-003, 1.5782e-005
 220.53, 46.45097, 2.4294e-003, 1.5388e-005
 221.53, 46.68252, 2.4450e-003, 1.5377e-005
 222.53, 46.91451, 2.4604e-003, 1.6315e-005
 223.53, 47.14686, 2.4768e-003, 1.5957e-005
 224.53, 47.37982, 2.4926e-003, 1.6063e-005
 225.53, 47.61327, 2.5085e-003, 1.5561e-005
 226.53, 47.84722, 2.5244e-003, 1.6207e-005
 227.53, 48.08126, 2.5404e-003, 1.6239e-005
 228.53, 48.31520, 2.5569e-003, 1.6339e-005
 229.53, 48.54917, 2.5724e-003, 1.5700e-005
 230.53, 48.78343, 2.5883e-003, 1.5993e-005
 231.53, 49.01814, 2.6039e-003, 1.6427e-005
 232.53, 49.25387, 2.6202e-003, 1.5587e-005
 233.53, 49.48999, 2.6357e-003, 1.6313e-005
 234.53, 49.72638, 2.6522e-003, 1.5924e-005
 235.53, 49.96225, 2.6682e-003, 1.5765e-005
 236.53, 50.19863, 2.6843e-003, 1.5742e-005
 237.53, 50.43517, 2.7005e-003, 1.6175e-005
 238.53, 50.67208, 2.7167e-003, 1.6151e-005
 239.53, 50.90938, 2.7325e-003, 1.5831e-005
 240.53, 51.14711, 2.7483e-003, 1.6222e-005
 241.53, 51.38532, 2.7644e-003, 1.5908e-005
 242.53, 51.62369, 2.7808e-003, 1.6571e-005
 243.53, 51.86194, 2.7971e-003, 1.6165e-005
 244.53, 52.10017, 2.8134e-003, 1.6338e-005
 245.53, 52.33872, 2.8295e-003, 1.5967e-005
 246.53, 52.57806, 2.8456e-003, 1.6063e-005
 247.53, 52.81782, 2.8614e-003, 1.6541e-005
 248.53, 53.05780, 2.8777e-003, 1.5910e-005
 249.53, 53.29770, 2.8936e-003, 1.5632e-005
 250.53, 53.53813, 2.9094e-003, 1.6074e-005
 251.53, 53.77886, 2.9256e-003, 1.5824e-005
 252.53, 54.02036, 2.9415e-003, 1.6502e-005
 253.53, 54.26211, 2.9576e-003, 1.6404e-005
 254.53, 54.50394, 2.9741e-003, 1.6368e-005
 255.53, 54.74585, 2.9898e-003, 1.6066e-005
 256.53, 54.98817, 3.0063e-003, 1.5909e-005
 257.53, 55.23056, 3.0224e-003, 1.6493e-005
 258.53, 55.47332, 3.0383e-003, 1.5902e-005
 259.53, 55.71553, 3.0538e-003, 1.5616e-005
 260.53, 55.95864, 3.0700e-003, 1.6563e-005
 261.53, 56.20231, 3.0861e-003, 1.6246e-005
 262.53, 56.44647, 3.1023e-003, 1.6931e-005
 263.53, 56.69099, 3.1187e-003, 1.5755e-005
 264.53, 56.93576, 3.1345e-003, 1.6224e-005
 265.53, 57.18173, 3.1503e-003, 1.6473e-005
 266.53, 57.42783, 3.1667e-003, 1.6270e-005
 267.53, 57.67355, 3.1828e-003, 1.5860e-005
 268.53, 57.91939, 3.1984e-003, 1.6148e-005
 269.53, 58.16548, 3.2145e-003, 1.6041e-005
 270.53, 58.41262, 3.2306e-003, 1.6559e-005
 271.53, 58.66005, 3.2467e-003, 1.6245e-005
 272.53, 58.90771, 3.2626e-003, 1.5247e-005
 273.53, 59.15478, 3.2781e-003, 1.6574e-005
 274.53, 59.40222, 3.2945e-003, 1.6688e-005
 275.53, 59.65022, 3.3106e-003, 1.5532e-005
 276.53, 59.89910, 3.3264e-003, 1.5431e-005
 277.53, 60.14826, 3.3426e-003, 1.6088e-005
 278.53, 60.39742, 3.3583e-003, 1.5703e-005
 279.53, 60.64712, 3.3745e-003, 1.6075e-005
 280.53, 60.89704, 3.3902e-003, 1.5185e-005
 281.53, 61.14725, 3.4060e-003, 1.6122e-005
 282.53, 61.39781, 3.4215e-003, 1.5606e-005
 283.53, 61.64895, 3.4378e-003, 1.5461e-005
 284.53, 61.90092, 3.4539e-003, 1.5997e-005
 285.53, 62.15322, 3.4694e-003, 1.5729e-005
 286.53, 62.40577, 3.4854e-003, 1.5854e-005
 287.53, 62.65773, 3.5016e-003, 1.6556e-005
 288.53, 62.91000, 3.5176e-003, 1.5329e-005
 289.53, 63.16263, 3.5336e-003, 1.6179e-005
 290.53, 63.41600, 3.5495e-003, 1.5353e-005
 291.53, 63.66990, 3.5646e-003, 1.4938e-005
 292.53, 63.92369, 3.5798e-003, 1.5561e-005
 293.53, 64.17771, 3.5953e-003, 1.5550e-005
 294.53, 64.43170, 3.6107e-003, 1.5280e-005
 295.53, 64.68634, 3.6258e-003, 1.5147e-005
 296.53, 64.94154, 3.6417e-003, 1.5780e-005
 297.53, 65.19669, 3.6580e-003, 1.5723e-005
 298.53, 65.45211, 3.6736e-003, 1.4938e-005
 299.53, 65.70847, 3.6890e-003, 1.5357e-005
 300.53, 65.96597, 3.7059e-003, 1.5299e-005
 301.53, 66.22296, 3.7211e-003, 1.5221e-005
 302.53, 66.47984, 3.7369e-003, 1.5851e-005
 303.53, 66.73665, 3.7517e-003, 1.5981e-005
 304.53, 66.99450, 3.7684e-003, 1.5545e-005
 305.53, 67.25284, 3.7840e-003, 1.5621e-005
 306.53, 67.51192, 3.7992e-003, 1.5534e-005
 307.53, 67.77174, 3.8158e-003, 1.6317e-005
 308.53, 68.03158, 3.8311e-003, 1.5730e-005
 309.53, 68.29166, 3.8468e-003, 1.6398e-005
 310.53, 68.55117, 3.8625e-003, 1.6380e-005
 311.53, 68.81140, 3.8789e-003, 1.5686e-005
 312.53, 69.07180, 3.8945e-003, 1.4635e-005
 313.53, 69.33323, 3.9097e-003, 1.5712e-005
 314.53, 69.59453, 3.9249e-003, 1.4992e-005
 315.53, 69.85606, 3.9404e-003, 1.5744e-005
 316.53, 70.11776, 3.9576e-003, 1.7012e-005
 317.53, 70.37999, 3.9726e-003, 1.4922e-005
 318.53, 70.64291, 3.9873e-003, 1.5443e-005
 319.53, 70.90618, 4.0030e-003, 1.4907e-005
 320.53, 71.16972, 4.0183e-003, 1.5348e-005
 321.53, 71.43361, 4.0340e-003, 1.5254e-005
 322.53, 71.69792, 4.0494e-003, 1.4556e-005
 323.53, 71.96251, 4.0648e-003, 1.5846e-005
 324.53, 72.22743, 4.0799e-003, 1.5442e-005
 325.53, 72.49275, 4.0953e-003, 1.6360e-005
 326.53, 72.75828, 4.1114e-003, 1.5175e-005
 327.53, 73.02511, 4.1267e-003, 1.5262e-005
 328.53, 73.29178, 4.1421e-003, 1.5314e-005
 329.53, 73.55832, 4.1573e-003, 1.4296e-005
 330.53, 73.82454, 4.1731e-003, 1.6974e-005
 331.53, 74.09173, 4.1888e-003, 1.5398e-005
 332.53, 74.35963, 4.2045e-003, 1.5187e-005
 333.53, 74.62823, 4.2190e-003, 1.5334e-005
 334.53, 74.89702, 4.2343e-003, 1.5347e-005
 335.53, 75.16558, 4.2462e-003, 7.6526e-006
 336.53, 75.43425, 4.2609e-003, 1.4028e-005
 337.53, 75.70257, 4.2762e-003, 1.5123e-005
 338.53, 75.97137, 4.2910e-003, 1.5289e-005
 339.53, 76.24102, 4.3065e-003, 1.5447e-005
 340.53, 76.51054, 4.3217e-003, 1.4816e-005
 341.53, 76.78006, 4.3370e-003, 1.6297e-005
 342.53, 77.05008, 4.3535e-003, 1.5114e-005
 343.53, 77.32138, 4.3689e-003, 1.5665e-005
 344.53, 77.59299, 4.3839e-003, 1.5569e-005
 345.53, 77.86483, 4.3997e-003, 1.5266e-005
 346.53, 78.13706, 4.4154e-003, 1.5649e-005
 347.53, 78.40909, 4.4314e-003, 1.5672e-005
 348.53, 78.68217, 4.4468e-003, 1.4896e-005
 349.53, 78.95461, 4.4621e-003, 1.6670e-005
 350.53, 79.22774, 4.4783e-003, 1.5949e-005
 351.53, 79.50087, 4.4940e-003, 1.5648e-005
 352.53, 79.77463, 4.5093e-003, 1.5384e-005
 353.53, 80.04868, 4.5259e-003, 1.5895e-005
 354.53, 80.32319, 4.5408e-003, 1.5799e-005
 355.53, 80.59798, 4.5565e-003, 1.6023e-005
 356.53, 80.87299, 4.5712e-003, 1.3661e-005
 357.53, 81.14798, 4.5865e-003, 1.5003e-005
 358.53, 81.42362, 4.6019e-003, 1.4780e-005
 359.53, 81.69970, 4.6174e-003, 1.4798e-005
 360.53, 81.97607, 4.6326e-003, 1.5545e-005
 361.53, 82.25267, 4.6484e-003, 1.4950e-005
 362.53, 82.52992, 4.6646e-003, 1.5472e-005
 363.53, 82.80762, 4.6797e-003, 1.4665e-005
 364.53, 83.08531, 4.6953e-003, 1.5468e-005
 365.53, 83.36329, 4.7101e-003, 1.5160e-005
 366.53, 83.64245, 4.7255e-003, 1.5029e-005
 367.53, 83.92148, 4.7407e-003, 1.5764e-005
 368.53, 84.20039, 4.7561e-003, 1.5407e-005
 369.53, 84.47960, 4.7708e-003, 1.5425e-005
 370.53, 84.75953, 4.7860e-003, 1.4362e-005
 371.53, 85.03985, 4.8008e-003, 1.4883e-005
 372.53, 85.31987, 4.8159e-003, 1.5010e-005
 373.53, 85.59941, 4.8305e-003, 1.5108e-005
 374.53, 85.87947, 4.8451e-003, 1.4658e-005
 375.53, 86.16044, 4.8594e-003, 1.5716e-005
 376.53, 86.44183, 4.8751e-003, 1.4884e-005
 377.53, 86.72213, 4.8900e-003, 1.5745e-005
 378.53, 87.00262, 4.9047e-003, 1.4179e-005
 379.53, 87.28454, 4.9196e-003, 1.4512e-005
 380.53, 87.56804, 4.9341e-003, 1.4614e-005
 381.53, 87.85160, 4.9488e-003, 1.4680e-005
 382.53, 88.13533, 4.9643e-003, 1.3999e-005
 383.53, 88.41867, 4.9792e-003, 1.5145e-005
 384.53, 88.70297, 4.9940e-003, 1.5416e-005
 385.53, 88.98800, 5.0087e-003, 1.4983e-005
 386.53, 89.27302, 5.0239e-003, 1.4596e-005
 387.53, 89.55843, 5.0388e-003, 1.4756e-005
 388.53, 89.84391, 5.0544e-003, 1.5628e-005
 389.53, 90.12976, 5.0697e-003, 1.4878e-005
 390.53, 90.41565, 5.0846e-003, 1.4613e-005
 391.53, 90.70221, 5.0992e-003, 1.4950e-005
 392.53, 90.98848, 5.1142e-003, 1.6329e-005
 393.53, 91.27519, 5.1304e-003, 1.4549e-005
 394.53, 91.56264, 5.1451e-003, 1.4765e-005
 395.53, 91.85038, 5.1605e-003, 1.4642e-005
 396.53, 92.13867, 5.1755e-003, 1.4528e-005
 397.53, 92.42766, 5.1906e-003, 1.5721e-005
 398.53, 92.71726, 5.2064e-003, 1.5327e-005
 399.53, 93.00716, 5.2207e-003, 1.4620e-005
 400.53, 93.29727, 5.2362e-003, 1.5079e-005
 401.53, 93.58748, 5.2513e-003, 1.4988e-005
 402.53, 93.87796, 5.2663e-003, 1.5044e-005
 403.53, 94.16872, 5.2813e-003, 1.4426e-005
 404.53, 94.45903, 5.2968e-003, 1.5728e-005
 405.53, 94.74903, 5.3123e-003, 1.5538e-005
 406.53, 95.04026, 5.3272e-003, 1.4783e-005
 407.53, 95.33190, 5.3426e-003, 1.5207e-005
 408.53, 95.62407, 5.3577e-003, 1.5300e-005
 409.53, 95.91629, 5.3736e-003, 1.5282e-005
 410.53, 96.20884, 5.3884e-003, 1.5114e-005
 411.53, 96.50189, 5.4038e-003, 1.4516e-005
 412.53, 96.79541, 5.4191e-003, 1.5459e-005
 413.53, 97.08930, 5.4347e-003, 1.5446e-005
 414.53, 97.38306, 5.4495e-003, 1.5247e-005
 415.53, 97.67698, 5.4651e-003, 1.7137e-005
 416.53, 97.97220, 5.4810e-003, 1.5637e-005
 417.53, 98.26865, 5.4958e-003, 1.5454e-005
 418.53, 98.56509, 5.5111e-003, 1.4838e-005
 419.53, 98.86061, 5.5261e-003, 1.6631e-005
 420.53, 99.15564, 5.5417e-003, 1.5212e-005
 421.53, 99.45148, 5.5568e-003, 1.5420e-005
 422.53, 99.74765, 5.5720e-003, 1.5800e-005
 423.53,100.045, 5.5868e-003, 1.4739e-005
 424.53,100.341, 5.6022e-003, 1.6628e-005
 425.53,100.638, 5.6174e-003, 1.5034e-005
 426.53,100.935, 5.6325e-003, 1.5658e-005
 427.53,101.232, 5.6475e-003, 1.4744e-005
 428.53,101.53, 5.6626e-003, 1.4071e-005
 429.53,101.829, 5.6780e-003, 1.6006e-005
 430.53,102.129, 5.6930e-003, 1.5220e-005
 431.53,102.43, 5.7083e-003, 1.5534e-005
 432.53,102.73, 5.7232e-003, 1.5912e-005
 433.53,103.03, 5.7381e-003, 1.4725e-005
 434.53,103.33, 5.7535e-003, 1.4909e-005
 435.53,103.63, 5.7691e-003, 1.5302e-005
 436.53,103.93, 5.7839e-003, 1.4702e-005
 437.53,104.23, 5.7997e-003, 1.5426e-005
 438.53,104.533, 5.8147e-003, 1.5462e-005
 439.53,104.837, 5.8310e-003, 1.6086e-005
 440.53,105.143, 5.8469e-003, 1.6503e-005
 441.53,105.448, 5.8631e-003, 1.5778e-005
 442.53,105.752, 5.8797e-003, 1.6662e-005
 443.53,106.058, 5.8962e-003, 1.6731e-005
 444.53,106.367, 5.9131e-003, 1.5911e-005
 445.53,106.679, 5.9299e-003, 1.6701e-005
 446.53,106.992, 5.9457e-003, 1.7230e-005
 447.53,107.305, 5.9622e-003, 1.5778e-005
 448.53,107.615, 5.9785e-003, 1.5031e-005
 449.53,107.923, 5.9936e-003, 1.5020e-005
 450.53,108.23, 6.0086e-003, 1.4820e-005
 451.53,108.534, 6.0230e-003, 1.5061e-005
 452.53,108.835, 6.0372e-003, 1.4591e-005
 453.53,109.134, 6.0514e-003, 1.3892e-005
 454.53,109.431, 6.0654e-003, 1.3993e-005
 455.53,109.725, 6.0803e-003, 1.5054e-005
 456.53,110.018, 6.0943e-003, 1.4097e-005
 457.53,110.311, 6.1095e-003, 1.4063e-005
 458.53,110.605, 6.1233e-003, 1.4129e-005
 459.53,110.899, 6.1388e-003, 1.5643e-005
 460.53,111.193, 6.1541e-003, 1.4545e-005
 461.53,111.489, 6.1693e-003, 1.4797e-005
 462.53,111.786, 6.1844e-003, 1.5098e-005
 463.53,112.085, 6.1999e-003, 1.5784e-005
 464.53,112.386, 6.2154e-003, 1.6298e-005
 465.53,112.686, 6.2305e-003, 1.4806e-005
 466.53,112.986, 6.2455e-003, 1.5009e-005
 467.53,113.288, 6.2602e-003, 1.5344e-005
 468.53,113.59, 6.2759e-003, 1.5183e-005
 469.53,113.893, 6.2912e-003, 1.4319e-005
 470.53,114.197, 6.3064e-003, 1.5352e-005
 471.53,114.503, 6.3215e-003, 1.5699e-005
 472.53,114.811, 6.3372e-003, 1.6520e-005
 473.53,115.121, 6.3529e-003, 1.5538e-005
 474.53,115.43, 6.3686e-003, 1.5633e-005
 475.53,115.74, 6.3839e-003, 1.4995e-005
 476.53,116.051, 6.3993e-003, 1.5321e-005
 477.53,116.362, 6.4156e-003, 1.5657e-005
 478.53,116.674, 6.4312e-003, 1.5207e-005
 479.53,116.986, 6.4464e-003, 1.5198e-005
 480.53,117.299, 6.4617e-003, 1.4843e-005
 481.53,117.614, 6.4778e-003, 1.5590e-005
 482.53,117.93, 6.4931e-003, 1.5815e-005
 483.53,118.245, 6.5084e-003, 1.5940e-005
 484.53,118.562, 6.5236e-003, 1.5780e-005
 485.53,118.879, 6.5391e-003, 1.5531e-005
 486.53,119.196, 6.5547e-003, 1.6555e-005
 487.53,119.514, 6.5702e-003, 1.5578e-005
 488.53,119.833, 6.5861e-003, 1.5093e-005
 489.53,120.151, 6.6017e-003, 1.4887e-005
 490.53,120.469, 6.6171e-003, 1.5274e-005
 491.53,120.787, 6.6323e-003, 1.4947e-005
 492.53,121.107, 6.6478e-003, 1.5742e-005
 493.53,121.428, 6.6636e-003, 1.5427e-005
 494.53,121.749, 6.6787e-003, 1.5790e-005
 495.53,122.07, 6.6943e-003, 1.5277e-005
 496.53,122.39, 6.7105e-003, 1.6896e-005
 497.53,122.709, 6.7259e-003, 1.4909e-005
 498.53,123.03, 6.7414e-003, 1.4753e-005
 499.53,123.353, 6.7560e-003, 1.5179e-005
 500.53,123.676, 6.7712e-003, 1.4722e-005
 501.53,124.001, 6.7859e-003, 1.4764e-005
 502.53,124.324, 6.8011e-003, 1.5073e-005
 503.53,124.647, 6.8161e-003, 1.5558e-005
 504.53,124.971, 6.8322e-003, 1.5782e-005
 505.53,125.295, 6.8475e-003, 1.5069e-005
 506.53,125.62, 6.8631e-003, 1.6760e-005
 507.53,125.945, 6.8795e-003, 1.5711e-005
 508.53,126.272, 6.8954e-003, 1.6760e-005
 509.53,126.603, 6.9121e-003, 1.6761e-005
 510.53,126.936, 6.9284e-003, 1.7314e-005
 511.53,127.27, 6.9457e-003, 1.6059e-005
 512.53,127.603, 6.9619e-003, 1.5184e-005
 513.53,127.936, 6.9780e-003, 1.6790e-005
 514.53,128.27, 6.9932e-003, 1.5011e-005
 515.53,128.603, 7.0090e-003, 1.5228e-005
 516.53,128.931, 7.0240e-003, 1.4395e-005
 517.53,129.256, 7.0383e-003, 1.4791e-005
 518.53,129.578, 7.0522e-003, 1.4227e-005
 519.53,129.898, 7.0657e-003, 1.3921e-005
 520.53,130.215, 7.0795e-003, 1.3753e-005
 521.53,130.527, 7.0929e-003, 1.3010e-005
 522.53,130.839, 7.1068e-003, 1.4657e-005
 523.53,131.152, 7.1202e-003, 1.4437e-005
 524.53,131.463, 7.1351e-003, 1.3315e-005
 525.53,131.775, 7.1496e-003, 1.5241e-005
 526.53,132.087, 7.1638e-003, 1.4826e-005
 527.53,132.399, 7.1791e-003, 1.3804e-005
 528.53,132.712, 7.1934e-003, 1.5067e-005
 529.53,133.028, 7.2085e-003, 1.4173e-005
 530.53,133.346, 7.2235e-003, 1.5860e-005
 531.53,133.667, 7.2382e-003, 1.4556e-005
 532.53,133.987, 7.2535e-003, 1.6404e-005
 533.53,134.308, 7.2687e-003, 1.5633e-005
 534.53,134.629, 7.2838e-003, 1.4643e-005
 535.53,134.952, 7.2987e-003, 1.4972e-005
 536.53,135.277, 7.3143e-003, 1.4630e-005
 537.53,135.604, 7.3293e-003, 1.6238e-005
 538.53,135.931, 7.3446e-003, 1.5052e-005
 539.53,136.258, 7.3597e-003, 1.5593e-005
 540.53,136.586, 7.3752e-003, 1.4940e-005
 541.53,136.914, 7.3903e-003, 1.5444e-005
 542.53,137.244, 7.4052e-003, 1.4980e-005
 543.53,137.577, 7.4205e-003, 1.5163e-005
 544.53,137.91, 7.4357e-003, 1.5428e-005
 545.53,138.244, 7.4513e-003, 1.4747e-005
 546.53,138.576, 7.4665e-003, 1.5003e-005
 547.53,138.909, 7.4820e-003, 1.4229e-005
 548.53,139.244, 7.4972e-003, 1.7725e-005
 549.53,139.579, 7.5124e-003, 1.5011e-005
 550.53,139.914, 7.5280e-003, 1.5490e-005
 551.53,140.25, 7.5427e-003, 1.5414e-005
 552.53,140.587, 7.5580e-003, 1.5040e-005
 553.53,140.924, 7.5738e-003, 1.5850e-005
 554.53,141.261, 7.5887e-003, 1.4998e-005
 555.53,141.598, 7.6038e-003, 1.5430e-005
 556.53,141.936, 7.6196e-003, 1.5989e-005
 557.53,142.274, 7.6345e-003, 1.4809e-005
 558.53,142.612, 7.6496e-003, 1.6099e-005
 559.53,142.951, 7.6652e-003, 1.6248e-005
 560.53,143.289, 7.6807e-003, 1.6127e-005
 561.53,143.629, 7.6967e-003, 1.5051e-005
 562.53,143.969, 7.7121e-003, 1.5058e-005
 563.53,144.308, 7.7274e-003, 1.5925e-005
 564.53,144.648, 7.7435e-003, 1.5916e-005
 565.53,144.988, 7.7586e-003, 1.5372e-005
 566.53,145.33, 7.7737e-003, 1.4925e-005
 567.53,145.672, 7.7888e-003, 1.5782e-005
 568.53,146.015, 7.8043e-003, 1.5356e-005
 569.53,146.359, 7.8196e-003, 1.5503e-005
 570.53,146.701, 7.8351e-003, 1.5842e-005
 571.53,147.042, 7.8500e-003, 1.5454e-005
 572.53,147.385, 7.8653e-003, 1.6374e-005
 573.53,147.728, 7.8812e-003, 1.4662e-005
 574.53,148.07, 7.8962e-003, 1.6040e-005
 575.53,148.412, 7.9117e-003, 1.5736e-005
 576.53,148.756, 7.9271e-003, 1.4588e-005
 577.53,149.1, 7.9429e-003, 1.5460e-005
 578.53,149.444, 7.9577e-003, 1.5648e-005
 579.53,149.789, 7.9732e-003, 1.5185e-005
 580.53,150.135, 7.9883e-003, 1.3614e-005
 581.53,150.48, 8.0042e-003, 1.5206e-005
 582.53,150.825, 8.0194e-003, 1.5228e-005
 583.53,151.171, 8.0349e-003, 1.4696e-005
 584.53,151.516, 8.0498e-003, 1.5512e-005
 585.53,151.861, 8.0653e-003, 1.7584e-005
 586.53,152.205, 8.0815e-003, 1.4583e-005
 587.53,152.551, 8.0966e-003, 1.5360e-005
 588.53,152.896, 8.1118e-003, 1.5301e-005
 589.53,153.241, 8.1276e-003, 1.5745e-005
 590.53,153.588, 8.1428e-003, 1.6194e-005
 591.53,153.936, 8.1585e-003, 1.5105e-005
 592.53,154.283, 8.1740e-003, 1.6308e-005
 593.53,154.628, 8.1897e-003, 1.6282e-005
 594.53,154.973, 8.2046e-003, 1.4698e-005
 595.53,155.32, 8.2201e-003, 1.5795e-005
 596.53,155.667, 8.2350e-003, 1.4988e-005
 597.53,156.014, 8.2507e-003, 1.5282e-005
 598.53,156.362, 8.2657e-003, 1.5371e-005
 599.53,156.709, 8.2810e-003, 1.5669e-005
 600.53,157.057, 8.2967e-003, 1.4825e-005
 601.53,157.405, 8.3116e-003, 1.5484e-005
 602.53,157.753, 8.3273e-003, 1.6922e-005
 603.53,158.102, 8.3425e-003, 1.6246e-005
 604.53,158.451, 8.3577e-003, 1.5050e-005
 605.53,158.802, 8.3734e-003, 1.4898e-005
 606.53,159.151, 8.3885e-003, 1.5177e-005
 607.53,159.502, 8.4043e-003, 1.4143e-005
 608.53,159.852, 8.4189e-003, 1.5830e-005
 609.53,160.2, 8.4348e-003, 1.5921e-005
 610.53,160.549, 8.4506e-003, 1.5585e-005
 611.53,160.9, 8.4658e-003, 1.5157e-005
 612.53,161.253, 8.4817e-003, 1.5816e-005
 613.53,161.608, 8.4978e-003, 1.6346e-005
 614.53,161.965, 8.5133e-003, 1.6507e-005
 615.53,162.323, 8.5296e-003, 1.6703e-005
 616.53,162.683, 8.5468e-003, 1.6069e-005
 617.53,163.043, 8.5622e-003, 1.5227e-005
 618.53,163.402, 8.5774e-003, 1.5168e-005
 619.53,163.759, 8.5929e-003, 1.4003e-005
 620.53,164.113, 8.6076e-003, 1.4478e-005
 621.53,164.464, 8.6220e-003, 1.4420e-005
 622.53,164.81, 8.6362e-003, 1.4371e-005
 623.53,165.154, 8.6507e-003, 1.4316e-005
 624.53,165.497, 8.6657e-003, 1.6133e-005
 625.53,165.838, 8.6804e-003, 1.5272e-005
 626.53,166.178, 8.6948e-003, 1.4751e-005
 627.53,166.519, 8.7101e-003, 1.4913e-005
 628.53,166.862, 8.7253e-003, 1.4951e-005
 629.53,167.206, 8.7406e-003, 1.5473e-005
 630.53,167.552, 8.7557e-003, 1.5182e-005
 631.53,167.897, 8.7704e-003, 1.5060e-005
 632.53,168.245, 8.7859e-003, 1.5515e-005
 633.53,168.592, 8.8013e-003, 1.4874e-005
 634.53,168.942, 8.8168e-003, 1.5350e-005
 635.53,169.292, 8.8321e-003, 1.5652e-005
 636.53,169.642, 8.8469e-003, 1.6310e-005
 637.53,169.992, 8.8633e-003, 1.4945e-005
 638.53,170.343, 8.8787e-003, 1.4943e-005
 639.53,170.697, 8.8942e-003, 1.5220e-005
 640.53,171.051, 8.9102e-003, 1.5459e-005
 641.53,171.406, 8.9255e-003, 1.5826e-005
 642.53,171.762, 8.9414e-003, 1.5674e-005
 643.53,172.119, 8.9569e-003, 1.4981e-005
 644.53,172.476, 8.9731e-003, 1.7402e-005
 645.53,172.835, 8.9886e-003, 1.5852e-005
 646.53,173.195, 9.0038e-003, 1.6085e-005
 647.53,173.555, 9.0200e-003, 1.5294e-005
 648.53,173.913, 9.0362e-003, 1.7246e-005
 649.53,174.272, 9.0510e-003, 1.5181e-005
 650.53,174.632, 9.0666e-003, 1.5299e-005
 651.53,174.992, 9.0826e-003, 1.5813e-005
 652.53,175.351, 9.0987e-003, 1.5760e-005
 653.53,175.711, 9.1144e-003, 1.5623e-005
 654.53,176.073, 9.1295e-003, 1.5527e-005
 655.53,176.435, 9.1460e-003, 1.5116e-005
 656.53,176.795, 9.1610e-003, 1.5719e-005
 657.53,177.158, 9.1765e-003, 1.4370e-005
 658.53,177.521, 9.1925e-003, 1.5151e-005
 659.53,177.884, 9.2080e-003, 1.5470e-005
 660.53,178.247, 9.2238e-003, 1.6281e-005
 661.53,178.61, 9.2390e-003, 1.4845e-005
 662.53,178.973, 9.2547e-003, 1.6408e-005
 663.53,179.336, 9.2713e-003, 1.7313e-005
 664.53,179.701, 9.2871e-003, 1.5753e-005
 665.53,180.068, 9.3031e-003, 1.4921e-005
 666.53,180.435, 9.3189e-003, 1.6488e-005
 667.53,180.801, 9.3353e-003, 1.5751e-005
 668.53,181.165, 9.3507e-003, 1.5328e-005
 669.53,181.531, 9.3660e-003, 1.5528e-005
 670.53,181.897, 9.3819e-003, 1.5650e-005
 671.53,182.264, 9.3988e-003, 1.5253e-005
 672.53,182.632, 9.4143e-003, 1.5704e-005
 673.53,183.001, 9.4301e-003, 1.7029e-005
 674.53,183.369, 9.4464e-003, 1.6547e-005
 675.53,183.735, 9.4616e-003, 1.5559e-005
 676.53,184.101, 9.4776e-003, 1.5658e-005
 677.53,184.469, 9.4926e-003, 1.5926e-005
 678.53,184.836, 9.5089e-003, 1.5308e-005
 679.53,185.204, 9.5249e-003, 1.5926e-005
 680.53,185.573, 9.5402e-003, 1.5174e-005
 681.53,185.943, 9.5567e-003, 1.7418e-005
 682.53,186.312, 9.5724e-003, 1.5161e-005
 683.53,186.681, 9.5879e-003, 1.5315e-005
 684.53,187.052, 9.6039e-003, 1.6781e-005
 685.53,187.425, 9.6196e-003, 1.5517e-005
 686.53,187.798, 9.6358e-003, 1.5825e-005
 687.53,188.172, 9.6514e-003, 1.5858e-005
 688.53,188.545, 9.6671e-003, 1.5703e-005
 689.53,188.916, 9.6827e-003, 1.5139e-005
 690.53,189.285, 9.6987e-003, 1.6024e-005
 691.53,189.655, 9.7138e-003, 1.5327e-005
 692.53,190.028, 9.7307e-003, 1.9176e-005
 693.53,190.404, 9.7468e-003, 1.5928e-005
 694.53,190.785, 9.7634e-003, 1.6945e-005
 695.53,191.169, 9.7807e-003, 1.7477e-005
 696.53,191.556, 9.7979e-003, 1.6997e-005
 697.53,191.946, 9.8147e-003, 1.7352e-005
 698.53,192.337, 9.8320e-003, 1.6528e-005
 699.53,192.73, 9.8485e-003, 1.6408e-005
 700.53,193.121, 9.8644e-003, 1.6022e-005
 701.53,193.508, 9.8805e-003, 1.7392e-005
 702.53,193.891, 9.8957e-003, 1.5009e-005
 703.53,194.268, 9.9105e-003, 1.4959e-005
 704.53,194.642, 9.9254e-003, 1.4892e-005
 705.53,195.012, 9.9398e-003, 1.5516e-005
 706.53,195.38, 9.9552e-003, 1.3813e-005
 707.53,195.748, 9.9701e-003, 1.5243e-005
 708.53,196.116, 9.9857e-003, 1.4428e-005
 709.53,196.483, 1.0001e-002, 1.6705e-005
 710.53,196.852, 1.0017e-002, 1.5537e-005
 711.53,197.221, 1.0032e-002, 1.4413e-005
 712.53,197.591, 1.0047e-002, 1.5002e-005
 713.53,197.962, 1.0063e-002, 1.5535e-005
 714.53,198.334, 1.0078e-002, 1.4856e-005
 715.53,198.708, 1.0093e-002, 1.4397e-005
 716.53,199.083, 1.0109e-002, 1.5504e-005
 717.53,199.459, 1.0125e-002, 1.5484e-005
 718.53,199.836, 1.0140e-002, 1.5940e-005
 719.53,200.212, 1.0156e-002, 1.4467e-005
 720.53,200.588, 1.0172e-002, 1.5849e-005
 721.53,200.964, 1.0187e-002, 1.6621e-005
 722.53,201.341, 1.0202e-002, 1.4733e-005
 723.53,201.718, 1.0218e-002, 1.5222e-005
 724.53,202.096, 1.0233e-002, 1.4945e-005
 725.53,202.474, 1.0248e-002, 1.4950e-005
 726.53,202.854, 1.0264e-002, 1.4518e-005
 727.53,203.236, 1.0279e-002, 1.5526e-005
 728.53,203.617, 1.0294e-002, 1.4056e-005
 729.53,203.998, 1.0309e-002, 1.6280e-005
 730.53,204.378, 1.0325e-002, 1.4712e-005
 731.53,204.759, 1.0340e-002, 1.5299e-005
 732.53,205.14, 1.0355e-002, 1.4003e-005
 733.53,205.522, 1.0371e-002, 1.4954e-005
 734.53,205.905, 1.0386e-002, 1.4218e-005
 735.53,206.289, 1.0401e-002, 1.3573e-005
 736.53,206.673, 1.0416e-002, 1.4897e-005
 737.53,207.057, 1.0432e-002, 1.4775e-005
 738.53,207.442, 1.0447e-002, 1.4995e-005
 739.53,207.826, 1.0462e-002, 1.5070e-005
 740.53,208.209, 1.0478e-002, 1.5660e-005
 741.53,208.592, 1.0493e-002, 1.5164e-005
 742.53,208.976, 1.0508e-002, 1.5718e-005
 743.53,209.36, 1.0523e-002, 1.6527e-005
 744.53,209.743, 1.0539e-002, 1.4303e-005
 745.53,210.127, 1.0555e-002, 1.5158e-005
 746.53,210.512, 1.0570e-002, 1.5507e-005
 747.53,210.897, 1.0585e-002, 1.3831e-005
 748.53,211.281, 1.0600e-002, 1.4245e-005
 749.53,211.664, 1.0616e-002, 1.5631e-005
 750.53,212.048, 1.0631e-002, 1.4958e-005
 751.53,212.432, 1.0646e-002, 1.4724e-005
 752.53,212.814, 1.0661e-002, 1.4839e-005
 753.53,213.196, 1.0677e-002, 1.4081e-005
 754.53,213.581, 1.0692e-002, 1.5532e-005
 755.53,213.966, 1.0708e-002, 1.7066e-005
 756.53,214.352, 1.0723e-002, 1.4658e-005
 757.53,214.74, 1.0738e-002, 1.4815e-005
 758.53,215.126, 1.0753e-002, 1.4086e-005
 759.53,215.512, 1.0769e-002, 1.5505e-005
 760.53,215.898, 1.0784e-002, 1.3736e-005
 761.53,216.283, 1.0800e-002, 1.4342e-005
 762.53,216.668, 1.0815e-002, 1.9033e-005
 763.53,217.054, 1.0831e-002, 1.6427e-005
 764.53,217.438, 1.0846e-002, 1.7262e-005
 765.53,217.827, 1.0862e-002, 1.6222e-005
 766.53,218.219, 1.0878e-002, 1.5666e-005
 767.53,218.612, 1.0895e-002, 1.6021e-005
 768.53,219.008, 1.0912e-002, 1.6301e-005
 769.53,219.408, 1.0928e-002, 1.5398e-005
 770.53,219.808, 1.0944e-002, 1.5043e-005
 771.53,220.206, 1.0960e-002, 1.4989e-005
 772.53,220.602, 1.0976e-002, 1.4454e-005
 773.53,220.991, 1.0991e-002, 1.3869e-005
 774.53,221.374, 1.1006e-002, 1.3152e-005
 775.53,221.753, 1.1020e-002, 1.3809e-005
 776.53,222.131, 1.1035e-002, 1.7965e-005
 777.53,222.506, 1.1050e-002, 1.6145e-005
 778.53,222.88, 1.1065e-002, 1.5063e-005
 779.53,223.255, 1.1080e-002, 1.4938e-005
 780.53,223.633, 1.1095e-002, 1.5491e-005
 781.53,224.013, 1.1110e-002, 1.5408e-005
 782.53,224.393, 1.1127e-002, 1.5467e-005
 783.53,224.774, 1.1142e-002, 1.5329e-005
 784.53,225.158, 1.1158e-002, 1.5149e-005
 785.53,225.541, 1.1173e-002, 1.4966e-005
 786.53,225.927, 1.1190e-002, 1.4873e-005
 787.53,226.312, 1.1205e-002, 1.4190e-005
 788.53,226.698, 1.1221e-002, 1.5985e-005
 789.53,227.093, 1.1237e-002, 1.6224e-005
 790.53,227.497, 1.1252e-002, 1.6354e-005
 791.53,227.906, 1.1269e-002, 1.5841e-005
 792.53,228.314, 1.1285e-002, 1.6096e-005
 793.53,228.722, 1.1301e-002, 1.4566e-005
 794.53,229.134, 1.1317e-002, 1.4345e-005
 795.53,229.55, 1.1333e-002, 1.5951e-005
 796.53,229.973, 1.1350e-002, 1.7668e-005
 797.53,230.406, 1.1366e-002, 1.8320e-005
 798.53,230.851, 1.1383e-002, 1.7583e-005
 799.53,231.292, 1.1398e-002, 1.4837e-005
 800.53,231.719, 1.1413e-002, 1.3651e-005
 801.53,232.135, 1.1427e-002, 2.0209e-005
 802.53,232.548, 1.1444e-002, 1.6974e-005
 803.53,232.964, 1.1460e-002, 1.5793e-005
 804.53,233.387, 1.1477e-002, 1.5954e-005
 805.53,233.818, 1.1493e-002, 1.6559e-005
 806.53,234.255, 1.1509e-002, 1.6052e-005
 807.53,234.694, 1.1525e-002, 1.5967e-005
 808.53,235.131, 1.1540e-002, 1.5554e-005
 809.53,235.561, 1.1555e-002, 1.4234e-005
 810.53,235.988, 1.1572e-002, 1.5573e-005
 811.53,236.416, 1.1587e-002, 1.7311e-005
 812.53,236.842, 1.1602e-002, 1.5968e-005
 813.53,237.262, 1.1617e-002, 1.7119e-005
 814.53,237.676, 1.1631e-002, 1.4543e-005
 815.53,238.083, 1.1647e-002, 1.7300e-005
 816.53,238.486, 1.1661e-002, 1.4490e-005
 817.53,238.887, 1.1676e-002, 1.7119e-005
 818.53,239.29, 1.1691e-002, 1.5273e-005
 819.53,239.695, 1.1707e-002, 1.4652e-005
 820.53,240.103, 1.1723e-002, 1.4793e-005
 821.53,240.51, 1.1738e-002, 1.5565e-005
 822.53,240.915, 1.1753e-002, 1.4735e-005
 823.53,241.321, 1.1768e-002, 1.4760e-005
 824.53,241.727, 1.1785e-002, 1.6011e-005
 825.53,242.134, 1.1800e-002, 1.5887e-005
 826.53,242.54, 1.1816e-002, 1.7477e-005
 827.53,242.946, 1.1832e-002, 1.7587e-005
 828.53,243.355, 1.1847e-002, 1.5893e-005
 829.53,243.766, 1.1862e-002, 1.6941e-005
 830.53,244.178, 1.1879e-002, 1.6050e-005
 831.53,244.589, 1.1894e-002, 1.5401e-005
 832.53,244.992, 1.1910e-002, 1.6344e-005
 833.53,245.389, 1.1925e-002, 1.3897e-005
 834.53,245.781, 1.1940e-002, 1.4103e-005
 835.53,246.168, 1.1956e-002, 1.8069e-005
 836.53,246.55, 1.1970e-002, 1.5203e-005
 837.53,246.93, 1.1985e-002, 1.4223e-005
 838.53,247.308, 1.2000e-002, 1.4452e-005
 839.53,247.685, 1.2014e-002, 1.4884e-005
 840.53,248.063, 1.2028e-002, 1.6410e-005
 841.53,248.44, 1.2044e-002, 1.4137e-005
 842.53,248.815, 1.2059e-002, 1.3275e-005
 843.53,249.189, 1.2073e-002, 1.5090e-005
 844.53,249.562, 1.2088e-002, 1.5004e-005
 845.53,249.937, 1.2104e-002, 1.4608e-005
 846.53,250.314, 1.2119e-002, 1.5783e-005
 847.53,250.693, 1.2135e-002, 1.5004e-005
 848.53,251.073, 1.2149e-002, 1.5208e-005
 849.53,251.454, 1.2164e-002, 1.4843e-005
 850.53,251.834, 1.2179e-002, 1.4129e-005
 851.53,252.216, 1.2195e-002, 1.7025e-005
 852.53,252.597, 1.2210e-002, 1.4082e-005
 853.53,252.977, 1.2225e-002, 1.5718e-005
 854.53,253.358, 1.2240e-002, 1.4437e-005
 855.53,253.741, 1.2254e-002, 1.5227e-005
 856.53,254.124, 1.2270e-002, 1.3842e-005
 857.53,254.507, 1.2285e-002, 1.4009e-005
 858.53,254.89, 1.2299e-002, 1.5085e-005
 859.53,255.271, 1.2313e-002, 1.4739e-005
 860.53,255.654, 1.2328e-002, 1.3624e-005
 861.53,256.038, 1.2343e-002, 1.5352e-005
 862.53,256.421, 1.2358e-002, 1.4077e-005
 863.53,256.805, 1.2374e-002, 1.8843e-005
 864.53,257.189, 1.2389e-002, 1.5218e-005
 865.53,257.574, 1.2404e-002, 1.5917e-005
 866.53,257.961, 1.2418e-002, 1.4243e-005
 867.53,258.351, 1.2434e-002, 1.5415e-005
 868.53,258.742, 1.2449e-002, 1.5245e-005
 869.53,259.132, 1.2464e-002, 1.4685e-005
 870.53,259.525, 1.2479e-002, 1.5171e-005
 871.53,259.922, 1.2495e-002, 1.5758e-005
 872.53,260.324, 1.2510e-002, 1.5784e-005
 873.53,260.728, 1.2526e-002, 1.5487e-005
 874.53,261.131, 1.2541e-002, 1.4951e-005
 875.53,261.537, 1.2557e-002, 1.5379e-005
 876.53,261.95, 1.2572e-002, 1.6480e-005
 877.53,262.376, 1.2588e-002, 1.6738e-005
 878.53,262.821, 1.2606e-002, 1.5677e-005
 879.53,263.288, 1.2623e-002, 1.8215e-005
 880.53,263.753, 1.2639e-002, 1.4779e-005
 881.53,264.208, 1.2654e-002, 1.5005e-005
 882.53,264.652, 1.2669e-002, 1.5477e-005
 883.53,265.07, 1.2685e-002, 1.4094e-005
 884.53,265.468, 1.2699e-002, 1.4723e-005
 885.53,265.857, 1.2714e-002, 1.5951e-005
 886.53,266.246, 1.2729e-002, 1.5203e-005
 887.53,266.643, 1.2744e-002, 1.6141e-005
 888.53,267.046, 1.2760e-002, 1.4565e-005
 889.53,267.452, 1.2775e-002, 1.4965e-005
 890.53,267.853, 1.2790e-002, 1.3865e-005
 891.53,268.249, 1.2804e-002, 1.4137e-005
 892.53,268.642, 1.2819e-002, 1.4398e-005
 893.53,269.036, 1.2834e-002, 1.5412e-005
 894.53,269.431, 1.2848e-002, 1.4058e-005
 895.53,269.826, 1.2863e-002, 1.4246e-005
 896.53,270.219, 1.2877e-002, 1.4733e-005
 897.53,270.613, 1.2893e-002, 1.4897e-005
 898.53,271.011, 1.2907e-002, 1.3718e-005
 899.53,271.413, 1.2922e-002, 1.4723e-005
 900.53,271.816, 1.2938e-002, 1.4686e-005
 901.53,272.221, 1.2952e-002, 1.4803e-005
 902.53,272.63, 1.2967e-002, 1.4396e-005
 903.53,273.039, 1.2982e-002, 1.4888e-005
 904.53,273.444, 1.2996e-002, 1.4102e-005
 905.53,273.847, 1.3013e-002, 1.8418e-005
 906.53,274.254, 1.3028e-002, 1.5932e-005
 907.53,274.667, 1.3043e-002, 1.4494e-005
 908.53,275.089, 1.3058e-002, 1.5724e-005
 909.53,275.513, 1.3074e-002, 1.4478e-005
 910.53,275.942, 1.3089e-002, 1.5552e-005
 911.53,276.38, 1.3105e-002, 1.5650e-005
 912.53,276.833, 1.3121e-002, 1.5841e-005
 913.53,277.315, 1.3139e-002, 1.6663e-005
 914.53,277.851, 1.3158e-002, 1.9495e-005
 915.53,278.435, 1.3176e-002, 1.5970e-005
 916.53,278.984, 1.3189e-002, 1.3454e-005
 917.53,279.477, 1.3202e-002, 1.2563e-005
 918.53,279.91, 1.3215e-002, 1.1268e-005
 919.53,280.296, 1.3225e-002, 1.2692e-005
 920.53,280.673, 1.3241e-002, 1.4962e-005
 921.53,281.059, 1.3256e-002, 1.6781e-005
 922.53,281.453, 1.3272e-002, 1.4759e-005
 923.53,281.842, 1.3286e-002, 1.4483e-005
 924.53,282.22, 1.3300e-002, 1.3068e-005
 925.53,282.593, 1.3314e-002, 1.4485e-005
 926.53,282.966, 1.3329e-002, 1.4665e-005
 927.53,283.344, 1.3343e-002, 1.8906e-005
 928.53,283.732, 1.3361e-002, 1.5870e-005
 929.53,284.129, 1.3376e-002, 1.4884e-005
 930.53,284.53, 1.3392e-002, 1.4878e-005
 931.53,284.92, 1.3406e-002, 1.3068e-005
 932.53,285.294, 1.3419e-002, 1.3541e-005
 933.53,285.664, 1.3434e-002, 1.5052e-005
 934.53,286.055, 1.3452e-002, 1.8421e-005
 935.53,286.479, 1.3470e-002, 1.7410e-005
 936.53,286.918, 1.3486e-002, 1.6434e-005
 937.53,287.344, 1.3501e-002, 1.4543e-005
 938.53,287.748, 1.3514e-002, 1.4388e-005
 939.53,288.14, 1.3528e-002, 1.2869e-005
 940.53,288.522, 1.3544e-002, 1.7206e-005
 941.53,288.902, 1.3557e-002, 1.3988e-005
 942.53,289.279, 1.3572e-002, 1.3887e-005
 943.53,289.635, 1.3585e-002, 1.1708e-005
 944.53,289.97, 1.3597e-002, 1.2730e-005
 945.53,290.303, 1.3611e-002, 1.5668e-005
 946.53,290.66, 1.3629e-002, 2.1574e-005
 947.53,291.049, 1.3647e-002, 1.7530e-005
 948.53,291.45, 1.3662e-002, 1.5448e-005
 949.53,291.841, 1.3676e-002, 1.2311e-005
 950.53,292.215, 1.3689e-002, 1.2729e-005
 951.53,292.576, 1.3703e-002, 1.5176e-005
 952.53,292.932, 1.3717e-002, 1.5336e-005
 953.53,293.29, 1.3732e-002, 1.4847e-005
 954.53,293.661, 1.3748e-002, 1.5234e-005
 955.53,294.045, 1.3763e-002, 1.5914e-005
 956.53,294.431, 1.3778e-002, 1.3543e-005
 957.53,294.808, 1.3792e-002, 1.4276e-005
 958.53,295.177, 1.3806e-002, 1.4734e-005
 959.53,295.537, 1.3821e-002, 1.4015e-005
 960.53,295.895, 1.3834e-002, 1.5011e-005
 961.53,296.257, 1.3849e-002, 1.6055e-005
 962.53,296.625, 1.3865e-002, 1.5456e-005
 963.53,297.002, 1.3879e-002, 1.5726e-005
 964.53,297.387, 1.3895e-002, 2.0335e-005
 965.53,297.781, 1.3912e-002, 1.5556e-005
 966.53,298.173, 1.3927e-002, 1.4188e-005
 967.53,298.547, 1.3940e-002, 1.4162e-005
 968.53,298.908, 1.3954e-002, 1.3710e-005
 969.53,299.266, 1.3968e-002, 1.5950e-005
 970.53,299.623, 1.3983e-002, 1.5317e-005
 971.53,299.981, 1.3998e-002, 1.4059e-005
 972.53,300.34, 1.4013e-002, 1.5522e-005
 973.53,300.7, 1.4028e-002, 1.4573e-005
 974.53,301.064, 1.4045e-002, 1.4814e-005
 975.53,301.436, 1.4060e-002, 1.6556e-005
 976.53,301.812, 1.4075e-002, 1.5120e-005
 977.53,302.193, 1.4091e-002, 1.5630e-005
 978.53,302.572, 1.4106e-002, 1.4947e-005
 979.53,302.941, 1.4120e-002, 1.3863e-005
 980.53,303.3, 1.4134e-002, 1.5052e-005
 981.53,303.661, 1.4149e-002, 1.6419e-005
 982.53,304.027, 1.4166e-002, 1.6092e-005
 983.53,304.398, 1.4182e-002, 1.7039e-005
 984.53,304.771, 1.4198e-002, 1.5655e-005
 985.53,305.153, 1.4214e-002, 1.7513e-005
 986.53,305.549, 1.4231e-002, 1.6771e-005
 987.53,305.955, 1.4247e-002, 1.6763e-005
 988.53,306.353, 1.4262e-002, 1.4588e-005
 989.53,306.73, 1.4276e-002, 1.5250e-005
 990.53,307.095, 1.4291e-002, 1.4554e-005
 991.53,307.451, 1.4306e-002, 1.5183e-005
 992.53,307.811, 1.4321e-002, 1.5219e-005
 993.53,308.172, 1.4336e-002, 1.4458e-005
 994.53,308.527, 1.4349e-002, 1.4782e-005
 995.53,308.882, 1.4365e-002, 1.5523e-005
 996.53,309.248, 1.4381e-002, 1.7027e-005
 997.53,309.629, 1.4397e-002, 1.5974e-005
 998.53,310.013, 1.4413e-002, 1.5138e-005
 999.53,310.379, 1.4426e-002, 1.2373e-005
1000.53,310.723, 1.4439e-002, 1.3515e-005
1001.53,311.06, 1.4453e-002, 1.4447e-005
1002.53,311.404, 1.4468e-002, 1.5557e-005
1003.53,311.76, 1.4484e-002, 1.6160e-005
1004.53,312.123, 1.4499e-002, 1.4999e-005
1005.53,312.487, 1.4514e-002, 1.7261e-005
1006.53,312.853, 1.4529e-002, 1.3767e-005
1007.53,313.222, 1.4543e-002, 1.4529e-005
1008.53,313.59, 1.4558e-002, 1.4203e-005
1009.53,313.953, 1.4572e-002, 1.4038e-005
1010.53,314.32, 1.4587e-002, 1.5541e-005
1011.53,314.693, 1.4602e-002, 1.4156e-005
1012.53,315.071, 1.4616e-002, 1.4822e-005
1013.53,315.453, 1.4633e-002, 1.5084e-005
1014.53,315.827, 1.4647e-002, 1.4309e-005
1015.53,316.195, 1.4661e-002, 1.4120e-005
1016.53,316.565, 1.4676e-002, 1.3095e-005
1017.53,316.941, 1.4691e-002, 1.4717e-005
1018.53,317.321, 1.4706e-002, 1.5755e-005
1019.53,317.702, 1.4721e-002, 1.4466e-005
1020.53,318.08, 1.4736e-002, 1.4328e-005
1021.53,318.454, 1.4751e-002, 1.5440e-005
1022.53,318.828, 1.4766e-002, 1.5099e-005
1023.53,319.209, 1.4782e-002, 1.5613e-005
1024.53,319.592, 1.4797e-002, 1.3585e-005
1025.53,319.973, 1.4811e-002, 1.4746e-005
1026.53,320.351, 1.4826e-002, 1.5282e-005
1027.53,320.731, 1.4841e-002, 1.5390e-005
1028.53,321.116, 1.4856e-002, 1.4656e-005
1029.53,321.509, 1.4872e-002, 1.8198e-005