File: data/8.1mm/oligHawk001s1r2-7.1mm.csv
#EXPORTTYPE:           ,DATA ALL
#FILE:                 ,oligHawk001s1r2.ngb-sle
#FORMAT:               ,NETZSCH5
#FTYPE:                ,ANSI
#IDENTITY:             ,oligoclase
#DECIMAL:              ,POINT
#SEPARATOR:            ,COMMA
#MTYPE:                ,DIL
#INSTRUMENT:           ,NETZSCH DIL 402C
#PROJECT:              ,feldspar
#DATE/TIME:            ,8/23/2019 4:33:06 PM (UTC-5)
#CORR. FILE:           ,
#TEMPCAL:              ,TCALZERO.TMX
#LABORATORY:           ,Mineral Physics
#OPERATOR:             ,PAG
#REMARK:               ,bare, norm start, for short plageioclase, sapphire, hawk mine 001 after 1000C
#SAMPLE:               , hawk mine 001 rerun
#SAMPLE LENGTH /mm:    ,7.060
#MATERIAL:             ,sapphire stnd
#MEASMODE:             ,Standard Expansion
#PURGE GAS 1:          ,ARGON
#FLOW RATE 1 /(ml/min):,75
#M.RANGE /µm:          ,500
#CORR. CODE:           ,010
#RANGE:                ,20.0°C/3.0(K/min)/920.0°C
#SEGMENT:              ,S1/1
#SEG. 1:               ,20.0°C/3.0(K/min)/920.0°C

##Temp./°C,Time/min,dL/Lo
 22.65600, 0.00000, 2.3233e-005
 22.64800, 0.06500, 2.3565e-005
 22.63600, 0.13000, 2.2825e-005
 22.62100, 0.19500, 2.2894e-005
 22.60100, 0.26000, 2.2999e-005
 22.58900, 0.32500, 2.3037e-005
 22.58000, 0.39000, 2.2831e-005
 22.57000, 0.45500, 2.2317e-005
 22.55400, 0.52000, 2.2221e-005
 22.54100, 0.58500, 2.1667e-005
 22.52500, 0.65000, 2.1500e-005
 22.50500, 0.71500, 2.1198e-005
 22.49800, 0.78000, 2.1325e-005
 22.48000, 0.84500, 2.0328e-005
 22.46400, 0.91000, 2.0055e-005
 22.45300, 0.97500, 1.9711e-005
 22.43500, 1.04000, 1.9529e-005
 22.42300, 1.10500, 1.9054e-005
 22.40800, 1.17000, 1.8946e-005
 22.40200, 1.23500, 1.8744e-005
 22.38600, 1.30000, 1.8205e-005
 22.37800, 1.36500, 1.8112e-005
 22.36000, 1.43000, 1.7576e-005
 22.35300, 1.49500, 1.6924e-005
 22.33400, 1.56000, 1.6789e-005
 22.32100, 1.62500, 1.6023e-005
 22.31200, 1.69000, 1.5888e-005
 22.29600, 1.75500, 1.5596e-005
 22.28300, 1.82000, 1.5291e-005
 22.26400, 1.88500, 1.4589e-005
 22.25500, 1.95000, 1.4046e-005
 22.23800, 2.01500, 1.4190e-005
 22.22500, 2.08000, 1.3531e-005
 22.20900, 2.14500, 1.3027e-005
 22.20600, 2.21000, 1.2722e-005
 22.18600, 2.27500, 1.2261e-005
 22.17500, 2.34000, 1.2536e-005
 22.16100, 2.40500, 1.1869e-005
 22.14400, 2.47000, 1.1482e-005
 22.13600, 2.53500, 1.0930e-005
 22.12600, 2.60000, 1.0291e-005
 22.12800, 2.66500, 1.0111e-005
 22.11400, 2.73000, 9.6215e-006
 22.09900, 2.79500, 8.9654e-006
 22.10700, 2.86000, 8.4737e-006
 22.09700, 2.92500, 7.5701e-006
 22.09900, 2.99000, 6.9116e-006
 22.11100, 3.05500, 6.0589e-006
 22.12100, 3.12000, 4.8202e-006
 22.13800, 3.18500, 3.7908e-006
 22.15300, 3.25000, 2.4462e-006
 22.17600, 3.31500, 9.4623e-007
 22.20400, 3.38000, 4.0270e-007
 22.23900, 3.44500,-1.9676e-006
 22.27400, 3.51000,-3.5057e-006
 22.31700, 3.57500,-5.6240e-006
 22.36400, 3.64000,-7.9617e-006
 22.42300, 3.70500,-9.8417e-006
 22.49200, 3.77000,-1.1916e-005
 22.56400, 3.83500,-1.4854e-005
 22.64000, 3.90000,-1.7196e-005
 22.73500, 3.96500,-1.9634e-005
 22.82200, 4.03000,-2.2995e-005
 22.93100, 4.09500,-2.5492e-005
 23.04900, 4.16000,-2.8826e-005
 23.17000, 4.22500,-3.1803e-005
 23.30500, 4.29000,-3.5282e-005
 23.44300, 4.35500,-3.8385e-005
 23.58300, 4.42000,-4.2182e-005
 23.73200, 4.48500,-4.5915e-005
 23.88900, 4.55000,-4.9289e-005
 24.06200, 4.61500,-5.2796e-005
 24.23500, 4.68000,-5.6959e-005
 24.42700, 4.74500,-6.0365e-005
 24.61100, 4.81000,-6.3988e-005
 24.80800, 4.87500,-6.7943e-005
 25.01900, 4.94000,-7.2205e-005
 25.22800, 5.00500,-7.5808e-005
 25.45200, 5.07000,-7.9746e-005
 25.68400, 5.13500,-8.3715e-005
 25.89200, 5.20000,-8.7271e-005
 26.16000, 5.26500,-9.1141e-005
 26.39100, 5.33000,-9.4709e-005
 26.64500, 5.39500,-9.8785e-005
 26.89900, 5.46000,-1.0159e-004
 27.16300, 5.52500,-1.0557e-004
 27.42600, 5.59000,-1.0923e-004
 27.69000, 5.65500,-1.1190e-004
 27.97300, 5.72000,-1.1492e-004
 28.24000, 5.78500,-1.1860e-004
 28.52100, 5.85000,-1.2190e-004
 28.79900, 5.91500,-1.2435e-004
 29.09900, 5.98000,-1.2681e-004
 29.39100, 6.04500,-1.2971e-004
 29.67500, 6.11000,-1.3245e-004
 29.97000, 6.17500,-1.3497e-004
 30.26800, 6.24000,-1.3758e-004
 30.56700, 6.30500,-1.3952e-004
 30.87200, 6.37000,-1.4197e-004
 31.17100, 6.43500,-1.4377e-004
 31.47700, 6.50000,-1.4593e-004
 31.77100, 6.56500,-1.4736e-004
 32.07400, 6.63000,-1.4895e-004
 32.39100, 6.69500,-1.5069e-004
 32.69200, 6.76000,-1.5179e-004
 33.00300, 6.82500,-1.5297e-004
 33.31600, 6.89000,-1.5369e-004
 33.62500, 6.95500,-1.5492e-004
 33.94000, 7.02000,-1.5519e-004
 34.25300, 7.08500,-1.5556e-004
 34.56100, 7.15000,-1.5663e-004
 34.87400, 7.21500,-1.5649e-004
 35.19000, 7.28000,-1.5710e-004
 35.50500, 7.34500,-1.5683e-004
 35.81700, 7.41000,-1.5661e-004
 36.12500, 7.47500,-1.5750e-004
 36.43300, 7.54000,-1.5725e-004
 36.75000, 7.60500,-1.5637e-004
 37.08000, 7.67000,-1.5612e-004
 37.39100, 7.73500,-1.5485e-004
 37.70900, 7.80000,-1.5495e-004
 38.03000, 7.86500,-1.5442e-004
 38.34300, 7.93000,-1.5408e-004
 38.65800, 7.99500,-1.5232e-004
 38.97400, 8.06000,-1.5125e-004
 39.28300, 8.12500,-1.5081e-004
 39.59800, 8.19000,-1.4932e-004
 39.90700, 8.25500,-1.4785e-004
 40.23100, 8.32000,-1.4709e-004
 40.54200, 8.38500,-1.4575e-004
 40.84700, 8.45000,-1.4456e-004
 41.17400, 8.51500,-1.4318e-004
 41.49000, 8.58000,-1.4178e-004
 41.80100, 8.64500,-1.4041e-004
 42.11900, 8.71000,-1.3849e-004
 42.43600, 8.77500,-1.3696e-004
 42.75200, 8.84000,-1.3532e-004
 43.07300, 8.90500,-1.3410e-004
 43.39400, 8.97000,-1.3238e-004
 43.71000, 9.03500,-1.3012e-004
 44.02800, 9.10000,-1.2896e-004
 44.34400, 9.16500,-1.2742e-004
 44.67000, 9.23000,-1.2572e-004
 44.98700, 9.29500,-1.2384e-004
 45.31100, 9.36000,-1.2201e-004
 45.63700, 9.42500,-1.2005e-004
 45.95800, 9.49000,-1.1803e-004
 46.28200, 9.55500,-1.1665e-004
 46.60700, 9.62000,-1.1455e-004
 46.93500, 9.68500,-1.1229e-004
 47.26300, 9.75000,-1.0994e-004
 47.58100, 9.81500,-1.0817e-004
 47.91400, 9.88000,-1.0600e-004
 48.24200, 9.94500,-1.0414e-004
 48.57200,10.01000,-1.0204e-004
 48.90300,10.07500,-9.9842e-005
 49.23600,10.14000,-9.7684e-005
 49.57100,10.20500,-9.5618e-005
 49.90400,10.27000,-9.3459e-005
 50.23900,10.33500,-9.1216e-005
 50.56200,10.40000,-8.9059e-005
 50.90200,10.46500,-8.6637e-005
 51.24100,10.53000,-8.4063e-005
 51.57800,10.59500,-8.2354e-005
 51.91300,10.66000,-7.9508e-005
 52.24500,10.72500,-7.7746e-005
 52.59100,10.79000,-7.4785e-005
 52.93100,10.85500,-7.2398e-005
 53.26400,10.92000,-7.0079e-005
 53.60300,10.98500,-6.7770e-005
 53.94400,11.05000,-6.5500e-005
 54.28900,11.11500,-6.2794e-005
 54.62700,11.18000,-6.0332e-005
 54.95000,11.24500,-5.8015e-005
 55.29400,11.31000,-5.5580e-005
 55.63100,11.37500,-5.2559e-005
 55.97000,11.44000,-4.9719e-005
 56.32200,11.50500,-4.6483e-005
 56.67000,11.57000,-4.3913e-005
 57.01800,11.63500,-4.0971e-005
 57.35600,11.70000,-3.8349e-005
 57.70000,11.76500,-3.5135e-005
 58.04200,11.83000,-3.1546e-005
 58.39300,11.89500,-2.8830e-005
 58.73900,11.96000,-2.6203e-005
 59.08000,12.02500,-2.3134e-005
 59.43100,12.09000,-2.0329e-005
 59.77200,12.15500,-1.6888e-005
 60.12800,12.22000,-1.3144e-005
 60.46300,12.28500,-1.0755e-005
 60.81000,12.35000,-6.9337e-006
 61.15600,12.41500,-3.8809e-006
 61.49500,12.48000,-4.3595e-007
 61.83900,12.54500, 2.5496e-006
 62.19100,12.61000, 5.8057e-006
 62.52200,12.67500, 9.6713e-006
 62.87800,12.74000, 1.2762e-005
 63.21500,12.80500, 1.6105e-005
 63.55800,12.87000, 1.9172e-005
 63.90300,12.93500, 2.3034e-005
 64.25100,13.00000, 2.6616e-005
 64.59200,13.06500, 2.9935e-005
 64.94000,13.13000, 3.4031e-005
 65.28900,13.19500, 3.7621e-005
 65.62700,13.26000, 4.1096e-005
 65.97800,13.32500, 4.4453e-005
 66.30700,13.39000, 4.8465e-005
 66.63900,13.45500, 5.1508e-005
 66.99900,13.52000, 5.5922e-005
 67.34200,13.58500, 5.9151e-005
 67.68200,13.65000, 6.3367e-005
 68.02000,13.71500, 6.7091e-005
 68.37600,13.78000, 7.0769e-005
 68.71200,13.84500, 7.4390e-005
 69.04700,13.91000, 7.8536e-005
 69.38300,13.97500, 8.2494e-005
 69.71500,14.04000, 8.6158e-005
 70.05900,14.10500, 9.0334e-005
 70.41400,14.17000, 9.4802e-005
 70.75500,14.23500, 9.8284e-005
 71.09400,14.30000, 1.0226e-004
 71.43800,14.36500, 1.0667e-004
 71.77800,14.43000, 1.1050e-004
 72.12500,14.49500, 1.1438e-004
 72.47400,14.56000, 1.1867e-004
 72.81100,14.62500, 1.2249e-004
 73.14900,14.69000, 1.2677e-004
 73.49300,14.75500, 1.3089e-004
 73.83300,14.82000, 1.3478e-004
 74.17900,14.88500, 1.3902e-004
 74.51800,14.95000, 1.4325e-004
 74.86100,15.01500, 1.4742e-004
 75.19600,15.08000, 1.5159e-004
 75.53300,15.14500, 1.5542e-004
 75.87400,15.21000, 1.5995e-004
 76.21900,15.27500, 1.6394e-004
 76.54900,15.34000, 1.6804e-004
 76.88500,15.40500, 1.7285e-004
 77.23000,15.47000, 1.7684e-004
 77.56900,15.53500, 1.8104e-004
 77.91700,15.60000, 1.8527e-004
 78.24400,15.66500, 1.8978e-004
 78.58300,15.73000, 1.9389e-004
 78.92200,15.79500, 1.9818e-004
 79.26200,15.86000, 2.0231e-004
 79.59500,15.92500, 2.0633e-004
 79.93500,15.99000, 2.1025e-004
 80.26200,16.05500, 2.1512e-004
 80.60000,16.12000, 2.1892e-004
 80.94200,16.18500, 2.2325e-004
 81.27300,16.25000, 2.2780e-004
 81.61500,16.31500, 2.3199e-004
 81.94300,16.38000, 2.3662e-004
 82.28300,16.44500, 2.4090e-004
 82.61200,16.51000, 2.4549e-004
 82.95300,16.57500, 2.4997e-004
 83.29300,16.64000, 2.5426e-004
 83.62900,16.70500, 2.5857e-004
 83.95000,16.77000, 2.6352e-004
 84.28100,16.83500, 2.6728e-004
 84.63400,16.90000, 2.7183e-004
 84.96400,16.96500, 2.7596e-004
 85.29700,17.03000, 2.8005e-004
 85.63300,17.09500, 2.8529e-004
 85.96300,17.16000, 2.8959e-004
 86.30800,17.22500, 2.9403e-004
 86.62900,17.29000, 2.9869e-004
 86.96600,17.35500, 3.0289e-004
 87.30500,17.42000, 3.0768e-004
 87.63300,17.48500, 3.1196e-004
 87.96300,17.55000, 3.1652e-004
 88.29600,17.61500, 3.2120e-004
 88.63300,17.68000, 3.2547e-004
 88.95900,17.74500, 3.2976e-004
 89.29300,17.81000, 3.3398e-004
 89.62500,17.87500, 3.3883e-004
 89.95800,17.94000, 3.4368e-004
 90.28500,18.00500, 3.4767e-004
 90.61800,18.07000, 3.5261e-004
 90.95300,18.13500, 3.5718e-004
 91.29500,18.20000, 3.6158e-004
 91.61000,18.26500, 3.6580e-004
 91.94100,18.33000, 3.7100e-004
 92.27800,18.39500, 3.7533e-004
 92.60200,18.46000, 3.7941e-004
 92.92400,18.52500, 3.8384e-004
 93.25500,18.59000, 3.8859e-004
 93.59500,18.65500, 3.9345e-004
 93.93000,18.72000, 3.9817e-004
 94.25200,18.78500, 4.0233e-004
 94.58200,18.85000, 4.0705e-004
 94.91000,18.91500, 4.1164e-004
 95.24000,18.98000, 4.1633e-004
 95.56800,19.04500, 4.2085e-004
 95.90000,19.11000, 4.2520e-004
 96.22500,19.17500, 4.3013e-004
 96.56100,19.24000, 4.3460e-004
 96.88600,19.30500, 4.3931e-004
 97.21900,19.37000, 4.4427e-004
 97.54400,19.43500, 4.4859e-004
 97.86600,19.50000, 4.5310e-004
 98.20100,19.56500, 4.5781e-004
 98.52700,19.63000, 4.6265e-004
 98.85200,19.69500, 4.6740e-004
 99.17700,19.76000, 4.7165e-004
 99.50500,19.82500, 4.7675e-004
 99.82600,19.89000, 4.8074e-004
100.151,19.95500, 4.8531e-004
100.474,20.02000, 4.9009e-004
100.795,20.08500, 4.9474e-004
101.127,20.15000, 4.9958e-004
101.448,20.21500, 5.0434e-004
101.773,20.28000, 5.0843e-004
102.1,20.34500, 5.1333e-004
102.425,20.41000, 5.1822e-004
102.751,20.47500, 5.2276e-004
103.069,20.54000, 5.2675e-004
103.394,20.60500, 5.3195e-004
103.716,20.67000, 5.3620e-004
104.035,20.73500, 5.4120e-004
104.356,20.80000, 5.4546e-004
104.679,20.86500, 5.5026e-004
104.997,20.93000, 5.5480e-004
105.323,20.99500, 5.5929e-004
105.647,21.06000, 5.6400e-004
105.972,21.12500, 5.6860e-004
106.296,21.19000, 5.7361e-004
106.616,21.25500, 5.7828e-004
106.932,21.32000, 5.8258e-004
107.253,21.38500, 5.8737e-004
107.583,21.45000, 5.9252e-004
107.903,21.51500, 5.9685e-004
108.223,21.58000, 6.0126e-004
108.55,21.64500, 6.0613e-004
108.855,21.71000, 6.1078e-004
109.179,21.77500, 6.1517e-004
109.494,21.84000, 6.1976e-004
109.818,21.90500, 6.2473e-004
110.136,21.97000, 6.2952e-004
110.46,22.03500, 6.3410e-004
110.776,22.10000, 6.3838e-004
111.09,22.16500, 6.4309e-004
111.415,22.23000, 6.4777e-004
111.734,22.29500, 6.5290e-004
112.048,22.36000, 6.5729e-004
112.364,22.42500, 6.6188e-004
112.691,22.49000, 6.6583e-004
113.005,22.55500, 6.7098e-004
113.323,22.62000, 6.7574e-004
113.64,22.68500, 6.8087e-004
113.962,22.75000, 6.8509e-004
114.281,22.81500, 6.8955e-004
114.599,22.88000, 6.9443e-004
114.924,22.94500, 6.9888e-004
115.239,23.01000, 7.0338e-004
115.548,23.07500, 7.0848e-004
115.869,23.14000, 7.1283e-004
116.194,23.20500, 7.1709e-004
116.511,23.27000, 7.2212e-004
116.826,23.33500, 7.2680e-004
117.141,23.40000, 7.3145e-004
117.46,23.46500, 7.3610e-004
117.768,23.53000, 7.4061e-004
118.104,23.59500, 7.4551e-004
118.413,23.66000, 7.5051e-004
118.733,23.72500, 7.5496e-004
119.053,23.79000, 7.5999e-004
119.368,23.85500, 7.6436e-004
119.687,23.92000, 7.6918e-004
119.997,23.98500, 7.7364e-004
120.315,24.05000, 7.7799e-004
120.633,24.11500, 7.8277e-004
120.951,24.18000, 7.8786e-004
121.262,24.24500, 7.9213e-004
121.563,24.31000, 7.9678e-004
121.88,24.37500, 8.0150e-004
122.202,24.44000, 8.0642e-004
122.511,24.50500, 8.1041e-004
122.821,24.57000, 8.1564e-004
123.137,24.63500, 8.2026e-004
123.448,24.70000, 8.2481e-004
123.754,24.76500, 8.2948e-004
124.07,24.83000, 8.3412e-004
124.39,24.89500, 8.3889e-004
124.706,24.96000, 8.4398e-004
125.019,25.02500, 8.4888e-004
125.334,25.09000, 8.5351e-004
125.643,25.15500, 8.5801e-004
125.958,25.22000, 8.6246e-004
126.265,25.28500, 8.6718e-004
126.585,25.35000, 8.7180e-004
126.9,25.41500, 8.7659e-004
127.211,25.48000, 8.8091e-004
127.528,25.54500, 8.8612e-004
127.833,25.61000, 8.9079e-004
128.143,25.67500, 8.9507e-004
128.453,25.74000, 9.0014e-004
128.761,25.80500, 9.0464e-004
129.071,25.87000, 9.0904e-004
129.385,25.93500, 9.1385e-004
129.691,26.00000, 9.1880e-004
130.005,26.06500, 9.2400e-004
130.317,26.13000, 9.2797e-004
130.625,26.19500, 9.3300e-004
130.939,26.26000, 9.3718e-004
131.244,26.32500, 9.4219e-004
131.56,26.39000, 9.4713e-004
131.872,26.45500, 9.5152e-004
132.175,26.52000, 9.5589e-004
132.485,26.58500, 9.6134e-004
132.797,26.65000, 9.6552e-004
133.104,26.71500, 9.7046e-004
133.412,26.78000, 9.7499e-004
133.727,26.84500, 9.8012e-004
134.04,26.91000, 9.8457e-004
134.344,26.97500, 9.8903e-004
134.656,27.04000, 9.9344e-004
134.964,27.10500, 9.9837e-004
135.272,27.17000, 1.0027e-003
135.576,27.23500, 1.0077e-003
135.89,27.30000, 1.0128e-003
136.2,27.36500, 1.0172e-003
136.514,27.43000, 1.0223e-003
136.816,27.49500, 1.0270e-003
137.129,27.56000, 1.0311e-003
137.435,27.62500, 1.0356e-003
137.746,27.69000, 1.0402e-003
138.054,27.75500, 1.0451e-003
138.357,27.82000, 1.0499e-003
138.66,27.88500, 1.0543e-003
138.969,27.95000, 1.0591e-003
139.282,28.01500, 1.0639e-003
139.586,28.08000, 1.0688e-003
139.9,28.14500, 1.0733e-003
140.209,28.21000, 1.0779e-003
140.502,28.27500, 1.0822e-003
140.813,28.34000, 1.0871e-003
141.125,28.40500, 1.0916e-003
141.438,28.47000, 1.0965e-003
141.735,28.53500, 1.1008e-003
142.042,28.60000, 1.1061e-003
142.356,28.66500, 1.1104e-003
142.658,28.73000, 1.1152e-003
142.967,28.79500, 1.1198e-003
143.273,28.86000, 1.1246e-003
143.576,28.92500, 1.1294e-003
143.879,28.99000, 1.1342e-003
144.185,29.05500, 1.1384e-003
144.495,29.12000, 1.1432e-003
144.798,29.18500, 1.1479e-003
145.102,29.25000, 1.1530e-003
145.411,29.31500, 1.1578e-003
145.716,29.38000, 1.1617e-003
146.023,29.44500, 1.1665e-003
146.333,29.51000, 1.1714e-003
146.633,29.57500, 1.1760e-003
146.933,29.64000, 1.1806e-003
147.24,29.70500, 1.1849e-003
147.55,29.77000, 1.1895e-003
147.854,29.83500, 1.1940e-003
148.153,29.90000, 1.1987e-003
148.458,29.96500, 1.2030e-003
148.763,30.03000, 1.2082e-003
149.065,30.09500, 1.2127e-003
149.369,30.16000, 1.2173e-003
149.675,30.22500, 1.2215e-003
149.977,30.29000, 1.2265e-003
150.285,30.35500, 1.2309e-003
150.587,30.42000, 1.2356e-003
150.892,30.48500, 1.2405e-003
151.195,30.55000, 1.2449e-003
151.506,30.61500, 1.2497e-003
151.801,30.68000, 1.2543e-003
152.103,30.74500, 1.2590e-003
152.411,30.81000, 1.2630e-003
152.711,30.87500, 1.2674e-003
153.011,30.94000, 1.2726e-003
153.316,31.00500, 1.2774e-003
153.612,31.07000, 1.2815e-003
153.915,31.13500, 1.2858e-003
154.215,31.20000, 1.2909e-003
154.521,31.26500, 1.2953e-003
154.825,31.33000, 1.2997e-003
155.141,31.39500, 1.3044e-003
155.438,31.46000, 1.3090e-003
155.739,31.52500, 1.3138e-003
156.045,31.59000, 1.3185e-003
156.351,31.65500, 1.3232e-003
156.647,31.72000, 1.3280e-003
156.955,31.78500, 1.3323e-003
157.26,31.85000, 1.3369e-003
157.558,31.91500, 1.3416e-003
157.86,31.98000, 1.3460e-003
158.164,32.04500, 1.3506e-003
158.456,32.11000, 1.3555e-003
158.764,32.17500, 1.3595e-003
159.062,32.24000, 1.3645e-003
159.364,32.30500, 1.3692e-003
159.666,32.37000, 1.3737e-003
159.971,32.43500, 1.3781e-003
160.267,32.50000, 1.3829e-003
160.563,32.56500, 1.3874e-003
160.863,32.63000, 1.3917e-003
161.166,32.69500, 1.3965e-003
161.464,32.76000, 1.4011e-003
161.762,32.82500, 1.4056e-003
162.064,32.89000, 1.4100e-003
162.36,32.95500, 1.4145e-003
162.66,33.02000, 1.4193e-003
162.961,33.08500, 1.4241e-003
163.265,33.15000, 1.4285e-003
163.562,33.21500, 1.4331e-003
163.865,33.28000, 1.4377e-003
164.163,33.34500, 1.4425e-003
164.456,33.41000, 1.4469e-003
164.759,33.47500, 1.4510e-003
165.053,33.54000, 1.4556e-003
165.362,33.60500, 1.4608e-003
165.652,33.67000, 1.4646e-003
165.953,33.73500, 1.4692e-003
166.251,33.80000, 1.4741e-003
166.551,33.86500, 1.4787e-003
166.846,33.93000, 1.4828e-003
167.142,33.99500, 1.4875e-003
167.445,34.06000, 1.4920e-003
167.742,34.12500, 1.4969e-003
168.039,34.19000, 1.5009e-003
168.34,34.25500, 1.5056e-003
168.64,34.32000, 1.5102e-003
168.938,34.38500, 1.5150e-003
169.23,34.45000, 1.5191e-003
169.534,34.51500, 1.5246e-003
169.826,34.58000, 1.5288e-003
170.12,34.64500, 1.5331e-003
170.419,34.71000, 1.5379e-003
170.726,34.77500, 1.5424e-003
171.016,34.84000, 1.5467e-003
171.313,34.90500, 1.5511e-003
171.603,34.97000, 1.5550e-003
171.907,35.03500, 1.5604e-003
172.206,35.10000, 1.5648e-003
172.497,35.16500, 1.5694e-003
172.796,35.23000, 1.5738e-003
173.093,35.29500, 1.5782e-003
173.385,35.36000, 1.5825e-003
173.686,35.42500, 1.5875e-003
173.981,35.49000, 1.5918e-003
174.28,35.55500, 1.5968e-003
174.571,35.62000, 1.6013e-003
174.863,35.68500, 1.6052e-003
175.163,35.75000, 1.6103e-003
175.455,35.81500, 1.6145e-003
175.754,35.88000, 1.6192e-003
176.048,35.94500, 1.6239e-003
176.338,36.01000, 1.6282e-003
176.636,36.07500, 1.6325e-003
176.925,36.14000, 1.6370e-003
177.217,36.20500, 1.6421e-003
177.512,36.27000, 1.6464e-003
177.807,36.33500, 1.6505e-003
178.097,36.40000, 1.6556e-003
178.388,36.46500, 1.6601e-003
178.683,36.53000, 1.6643e-003
178.978,36.59500, 1.6683e-003
179.267,36.66000, 1.6737e-003
179.562,36.72500, 1.6777e-003
179.856,36.79000, 1.6826e-003
180.15,36.85500, 1.6869e-003
180.446,36.92000, 1.6922e-003
180.734,36.98500, 1.6963e-003
181.029,37.05000, 1.7006e-003
181.323,37.11500, 1.7053e-003
181.616,37.18000, 1.7099e-003
181.911,37.24500, 1.7143e-003
182.201,37.31000, 1.7187e-003
182.497,37.37500, 1.7229e-003
182.782,37.44000, 1.7275e-003
183.075,37.50500, 1.7318e-003
183.371,37.57000, 1.7370e-003
183.662,37.63500, 1.7410e-003
183.955,37.70000, 1.7458e-003
184.252,37.76500, 1.7500e-003
184.531,37.83000, 1.7547e-003
184.832,37.89500, 1.7584e-003
185.118,37.96000, 1.7631e-003
185.408,38.02500, 1.7678e-003
185.7,38.09000, 1.7719e-003
185.992,38.15500, 1.7766e-003
186.278,38.22000, 1.7813e-003
186.568,38.28500, 1.7854e-003
186.855,38.35000, 1.7901e-003
187.145,38.41500, 1.7948e-003
187.439,38.48000, 1.7986e-003
187.729,38.54500, 1.8036e-003
188.016,38.61000, 1.8081e-003
188.312,38.67500, 1.8126e-003
188.602,38.74000, 1.8170e-003
188.894,38.80500, 1.8212e-003
189.183,38.87000, 1.8254e-003
189.474,38.93500, 1.8302e-003
189.764,39.00000, 1.8339e-003
190.062,39.06500, 1.8384e-003
190.349,39.13000, 1.8431e-003
190.635,39.19500, 1.8473e-003
190.923,39.26000, 1.8518e-003
191.212,39.32500, 1.8563e-003
191.509,39.39000, 1.8609e-003
191.792,39.45500, 1.8652e-003
192.084,39.52000, 1.8694e-003
192.376,39.58500, 1.8742e-003
192.669,39.65000, 1.8786e-003
192.952,39.71500, 1.8827e-003
193.24,39.78000, 1.8878e-003
193.528,39.84500, 1.8921e-003
193.822,39.91000, 1.8968e-003
194.109,39.97500, 1.9010e-003
194.398,40.04000, 1.9057e-003
194.687,40.10500, 1.9101e-003
194.971,40.17000, 1.9146e-003
195.261,40.23500, 1.9190e-003
195.545,40.30000, 1.9228e-003
195.835,40.36500, 1.9275e-003
196.125,40.43000, 1.9321e-003
196.402,40.49500, 1.9362e-003
196.693,40.56000, 1.9405e-003
196.983,40.62500, 1.9448e-003
197.27,40.69000, 1.9491e-003
197.552,40.75500, 1.9541e-003
197.842,40.82000, 1.9583e-003
198.125,40.88500, 1.9634e-003
198.409,40.95000, 1.9672e-003
198.698,41.01500, 1.9714e-003
198.979,41.08000, 1.9763e-003
199.271,41.14500, 1.9806e-003
199.555,41.21000, 1.9851e-003
199.846,41.27500, 1.9893e-003
200.131,41.34000, 1.9937e-003
200.414,41.40500, 1.9981e-003
200.705,41.47000, 2.0019e-003
200.984,41.53500, 2.0065e-003
201.274,41.60000, 2.0109e-003
201.554,41.66500, 2.0152e-003
201.843,41.73000, 2.0194e-003
202.121,41.79500, 2.0236e-003
202.406,41.86000, 2.0281e-003
202.697,41.92500, 2.0324e-003
202.98,41.99000, 2.0365e-003
203.27,42.05500, 2.0408e-003
203.551,42.12000, 2.0453e-003
203.834,42.18500, 2.0493e-003
204.135,42.25000, 2.0536e-003
204.413,42.31500, 2.0579e-003
204.694,42.38000, 2.0626e-003
204.979,42.44500, 2.0662e-003
205.266,42.51000, 2.0710e-003
205.548,42.57500, 2.0756e-003
205.824,42.64000, 2.0794e-003
206.111,42.70500, 2.0837e-003
206.39,42.77000, 2.0884e-003
206.679,42.83500, 2.0928e-003
206.96,42.90000, 2.0970e-003
207.235,42.96500, 2.1008e-003
207.52,43.03000, 2.1052e-003
207.808,43.09500, 2.1101e-003
208.083,43.16000, 2.1143e-003
208.367,43.22500, 2.1186e-003
208.652,43.29000, 2.1233e-003
208.939,43.35500, 2.1272e-003
209.221,43.42000, 2.1320e-003
209.507,43.48500, 2.1360e-003
209.793,43.55000, 2.1408e-003
210.071,43.61500, 2.1450e-003
210.36,43.68000, 2.1496e-003
210.64,43.74500, 2.1536e-003
210.922,43.81000, 2.1578e-003
211.211,43.87500, 2.1621e-003
211.487,43.94000, 2.1662e-003
211.77,44.00500, 2.1710e-003
212.048,44.07000, 2.1750e-003
212.333,44.13500, 2.1799e-003
212.616,44.20000, 2.1836e-003
212.896,44.26500, 2.1882e-003
213.183,44.33000, 2.1925e-003
213.463,44.39500, 2.1969e-003
213.744,44.46000, 2.2015e-003
214.021,44.52500, 2.2050e-003
214.3,44.59000, 2.2091e-003
214.586,44.65500, 2.2135e-003
214.866,44.72000, 2.2183e-003
215.141,44.78500, 2.2230e-003
215.424,44.85000, 2.2271e-003
215.71,44.91500, 2.2311e-003
215.986,44.98000, 2.2351e-003
216.263,45.04500, 2.2396e-003
216.542,45.11000, 2.2436e-003
216.825,45.17500, 2.2480e-003
217.107,45.24000, 2.2525e-003
217.39,45.30500, 2.2565e-003
217.673,45.37000, 2.2609e-003
217.945,45.43500, 2.2647e-003
218.225,45.50000, 2.2694e-003
218.493,45.56500, 2.2739e-003
218.773,45.63000, 2.2781e-003
219.061,45.69500, 2.2825e-003
219.336,45.76000, 2.2863e-003
219.608,45.82500, 2.2905e-003
219.887,45.89000, 2.2953e-003
220.169,45.95500, 2.2995e-003
220.451,46.02000, 2.3043e-003
220.726,46.08500, 2.3086e-003
221.01,46.15000, 2.3123e-003
221.281,46.21500, 2.3170e-003
221.565,46.28000, 2.3213e-003
221.849,46.34500, 2.3255e-003
222.13,46.41000, 2.3298e-003
222.407,46.47500, 2.3336e-003
222.683,46.54000, 2.3383e-003
222.966,46.60500, 2.3424e-003
223.245,46.67000, 2.3467e-003
223.524,46.73500, 2.3510e-003
223.794,46.80000, 2.3545e-003
224.067,46.86500, 2.3590e-003
224.346,46.93000, 2.3636e-003
224.624,46.99500, 2.3676e-003
224.903,47.06000, 2.3719e-003
225.177,47.12500, 2.3764e-003
225.456,47.19000, 2.3803e-003
225.737,47.25500, 2.3850e-003
226.012,47.32000, 2.3898e-003
226.291,47.38500, 2.3933e-003
226.567,47.45000, 2.3984e-003
226.846,47.51500, 2.4024e-003
227.122,47.58000, 2.4062e-003
227.399,47.64500, 2.4103e-003
227.672,47.71000, 2.4146e-003
227.946,47.77500, 2.4192e-003
228.223,47.84000, 2.4234e-003
228.498,47.90500, 2.4273e-003
228.781,47.97000, 2.4315e-003
229.055,48.03500, 2.4365e-003
229.332,48.10000, 2.4403e-003
229.608,48.16500, 2.4443e-003
229.886,48.23000, 2.4484e-003
230.162,48.29500, 2.4528e-003
230.436,48.36000, 2.4567e-003
230.707,48.42500, 2.4612e-003
230.978,48.49000, 2.4654e-003
231.256,48.55500, 2.4694e-003
231.531,48.62000, 2.4737e-003
231.804,48.68500, 2.4778e-003
232.083,48.75000, 2.4822e-003
232.352,48.81500, 2.4862e-003
232.63,48.88000, 2.4910e-003
232.908,48.94500, 2.4949e-003
233.183,49.01000, 2.4992e-003
233.45,49.07500, 2.5036e-003
233.731,49.14000, 2.5078e-003
234.003,49.20500, 2.5115e-003
234.279,49.27000, 2.5158e-003
234.553,49.33500, 2.5198e-003
234.827,49.40000, 2.5240e-003
235.103,49.46500, 2.5290e-003
235.371,49.53000, 2.5329e-003
235.635,49.59500, 2.5372e-003
235.914,49.66000, 2.5407e-003
236.192,49.72500, 2.5450e-003
236.475,49.79000, 2.5490e-003
236.748,49.85500, 2.5534e-003
237.021,49.92000, 2.5582e-003
237.296,49.98500, 2.5621e-003
237.572,50.05000, 2.5660e-003
237.836,50.11500, 2.5707e-003
238.107,50.18000, 2.5745e-003
238.388,50.24500, 2.5784e-003
238.658,50.31000, 2.5827e-003
238.931,50.37500, 2.5869e-003
239.194,50.44000, 2.5910e-003
239.473,50.50500, 2.5952e-003
239.751,50.57000, 2.5999e-003
240.028,50.63500, 2.6039e-003
240.297,50.70000, 2.6079e-003
240.569,50.76500, 2.6119e-003
240.84,50.83000, 2.6163e-003
241.114,50.89500, 2.6200e-003
241.388,50.96000, 2.6244e-003
241.653,51.02500, 2.6285e-003
241.927,51.09000, 2.6325e-003
242.195,51.15500, 2.6366e-003
242.47,51.22000, 2.6406e-003
242.739,51.28500, 2.6447e-003
243.011,51.35000, 2.6492e-003
243.281,51.41500, 2.6534e-003
243.552,51.48000, 2.6577e-003
243.824,51.54500, 2.6618e-003
244.091,51.61000, 2.6659e-003
244.367,51.67500, 2.6704e-003
244.64,51.74000, 2.6746e-003
244.909,51.80500, 2.6784e-003
245.174,51.87000, 2.6823e-003
245.446,51.93500, 2.6867e-003
245.72,52.00000, 2.6909e-003
245.984,52.06500, 2.6949e-003
246.256,52.13000, 2.6989e-003
246.524,52.19500, 2.7029e-003
246.798,52.26000, 2.7072e-003
247.071,52.32500, 2.7113e-003
247.34,52.39000, 2.7153e-003
247.606,52.45500, 2.7195e-003
247.876,52.52000, 2.7237e-003
248.145,52.58500, 2.7281e-003
248.412,52.65000, 2.7318e-003
248.679,52.71500, 2.7360e-003
248.949,52.78000, 2.7403e-003
249.218,52.84500, 2.7444e-003
249.49,52.91000, 2.7482e-003
249.756,52.97500, 2.7524e-003
250.023,53.04000, 2.7558e-003
250.294,53.10500, 2.7603e-003
250.559,53.17000, 2.7647e-003
250.827,53.23500, 2.7692e-003
251.094,53.30000, 2.7728e-003
251.367,53.36500, 2.7771e-003
251.638,53.43000, 2.7809e-003
251.904,53.49500, 2.7848e-003
252.176,53.56000, 2.7887e-003
252.439,53.62500, 2.7932e-003
252.706,53.69000, 2.7973e-003
252.971,53.75500, 2.8011e-003
253.242,53.82000, 2.8053e-003
253.516,53.88500, 2.8093e-003
253.781,53.95000, 2.8138e-003
254.052,54.01500, 2.8176e-003
254.314,54.08000, 2.8214e-003
254.588,54.14500, 2.8257e-003
254.853,54.21000, 2.8296e-003
255.117,54.27500, 2.8333e-003
255.383,54.34000, 2.8380e-003
255.644,54.40500, 2.8420e-003
255.911,54.47000, 2.8462e-003
256.169,54.53500, 2.8503e-003
256.444,54.60000, 2.8544e-003
256.713,54.66500, 2.8587e-003
256.978,54.73000, 2.8629e-003
257.245,54.79500, 2.8667e-003
257.515,54.86000, 2.8708e-003
257.78,54.92500, 2.8751e-003
258.048,54.99000, 2.8796e-003
258.32,55.05500, 2.8834e-003
258.585,55.12000, 2.8877e-003
258.846,55.18500, 2.8921e-003
259.113,55.25000, 2.8962e-003
259.375,55.31500, 2.9009e-003
259.643,55.38000, 2.9049e-003
259.907,55.44500, 2.9093e-003
260.175,55.51000, 2.9137e-003
260.439,55.57500, 2.9176e-003
260.708,55.64000, 2.9221e-003
260.971,55.70500, 2.9262e-003
261.229,55.77000, 2.9301e-003
261.487,55.83500, 2.9347e-003
261.749,55.90000, 2.9394e-003
262.012,55.96500, 2.9435e-003
262.275,56.03000, 2.9476e-003
262.542,56.09500, 2.9524e-003
262.803,56.16000, 2.9567e-003
263.069,56.22500, 2.9605e-003
263.328,56.29000, 2.9651e-003
263.588,56.35500, 2.9695e-003
263.853,56.42000, 2.9737e-003
264.115,56.48500, 2.9782e-003
264.371,56.55000, 2.9822e-003
264.634,56.61500, 2.9866e-003
264.89,56.68000, 2.9910e-003
265.154,56.74500, 2.9953e-003
265.416,56.81000, 2.9996e-003
265.68,56.87500, 3.0038e-003
265.942,56.94000, 3.0084e-003
266.203,57.00500, 3.0127e-003
266.458,57.07000, 3.0166e-003
266.718,57.13500, 3.0208e-003
266.978,57.20000, 3.0252e-003
267.237,57.26500, 3.0289e-003
267.498,57.33000, 3.0331e-003
267.762,57.39500, 3.0377e-003
268.016,57.46000, 3.0414e-003
268.279,57.52500, 3.0459e-003
268.538,57.59000, 3.0499e-003
268.798,57.65500, 3.0542e-003
269.06,57.72000, 3.0581e-003
269.322,57.78500, 3.0628e-003
269.575,57.85000, 3.0663e-003
269.838,57.91500, 3.0702e-003
270.102,57.98000, 3.0747e-003
270.362,58.04500, 3.0787e-003
270.617,58.11000, 3.0827e-003
270.887,58.17500, 3.0864e-003
271.145,58.24000, 3.0903e-003
271.409,58.30500, 3.0939e-003
271.665,58.37000, 3.0978e-003
271.926,58.43500, 3.1015e-003
272.184,58.50000, 3.1053e-003
272.45,58.56500, 3.1092e-003
272.713,58.63000, 3.1132e-003
272.975,58.69500, 3.1169e-003
273.237,58.76000, 3.1206e-003
273.499,58.82500, 3.1244e-003
273.763,58.89000, 3.1274e-003
274.016,58.95500, 3.1301e-003
274.284,59.02000, 3.1344e-003
274.551,59.08500, 3.1382e-003
274.818,59.15000, 3.1422e-003
275.083,59.21500, 3.1455e-003
275.349,59.28000, 3.1494e-003
275.614,59.34500, 3.1526e-003
275.884,59.41000, 3.1564e-003
276.155,59.47500, 3.1602e-003
276.419,59.54000, 3.1637e-003
276.69,59.60500, 3.1679e-003
276.956,59.67000, 3.1711e-003
277.234,59.73500, 3.1750e-003
277.5,59.80000, 3.1786e-003
277.769,59.86500, 3.1822e-003
278.044,59.93000, 3.1860e-003
278.313,59.99500, 3.1901e-003
278.583,60.06000, 3.1940e-003
278.844,60.12500, 3.1970e-003
279.111,60.19000, 3.2010e-003
279.383,60.25500, 3.2046e-003
279.654,60.32000, 3.2082e-003
279.927,60.38500, 3.2116e-003
280.191,60.45000, 3.2157e-003
280.466,60.51500, 3.2196e-003
280.733,60.58000, 3.2233e-003
281.011,60.64500, 3.2273e-003
281.271,60.71000, 3.2306e-003
281.548,60.77500, 3.2345e-003
281.823,60.84000, 3.2384e-003
282.099,60.90500, 3.2417e-003
282.364,60.97000, 3.2458e-003
282.635,61.03500, 3.2495e-003
282.905,61.10000, 3.2535e-003
283.177,61.16500, 3.2571e-003
283.448,61.23000, 3.2611e-003
283.726,61.29500, 3.2653e-003
283.989,61.36000, 3.2687e-003
284.259,61.42500, 3.2728e-003
284.531,61.49000, 3.2771e-003
284.795,61.55500, 3.2811e-003
285.063,61.62000, 3.2846e-003
285.332,61.68500, 3.2884e-003
285.619,61.75000, 3.2925e-003
285.891,61.81500, 3.2967e-003
286.155,61.88000, 3.3000e-003
286.425,61.94500, 3.3039e-003
286.693,62.01000, 3.3078e-003
286.96,62.07500, 3.3116e-003
287.225,62.14000, 3.3152e-003
287.493,62.20500, 3.3191e-003
287.767,62.27000, 3.3235e-003
288.032,62.33500, 3.3270e-003
288.3,62.40000, 3.3308e-003
288.569,62.46500, 3.3354e-003
288.834,62.53000, 3.3388e-003
289.101,62.59500, 3.3430e-003
289.367,62.66000, 3.3468e-003
289.632,62.72500, 3.3509e-003
289.895,62.79000, 3.3539e-003
290.169,62.85500, 3.3580e-003
290.429,62.92000, 3.3624e-003
290.694,62.98500, 3.3659e-003
290.955,63.05000, 3.3699e-003
291.223,63.11500, 3.3743e-003
291.484,63.18000, 3.3782e-003
291.75,63.24500, 3.3822e-003
292.015,63.31000, 3.3862e-003
292.279,63.37500, 3.3897e-003
292.54,63.44000, 3.3940e-003
292.804,63.50500, 3.3981e-003
293.067,63.57000, 3.4020e-003
293.332,63.63500, 3.4058e-003
293.591,63.70000, 3.4094e-003
293.854,63.76500, 3.4136e-003
294.115,63.83000, 3.4176e-003
294.376,63.89500, 3.4214e-003
294.638,63.96000, 3.4253e-003
294.893,64.02500, 3.4289e-003
295.155,64.09000, 3.4331e-003
295.417,64.15500, 3.4369e-003
295.673,64.22000, 3.4407e-003
295.931,64.28500, 3.4449e-003
296.197,64.35000, 3.4488e-003
296.454,64.41500, 3.4529e-003
296.714,64.48000, 3.4565e-003
296.974,64.54500, 3.4604e-003
297.232,64.61000, 3.4647e-003
297.495,64.67500, 3.4685e-003
297.753,64.74000, 3.4724e-003
297.999,64.80500, 3.4738e-003
298.262,64.87000, 3.4778e-003
298.523,64.93500, 3.4814e-003
298.78,65.00000, 3.4857e-003
299.044,65.06500, 3.4896e-003
299.3,65.13000, 3.4930e-003
299.556,65.19500, 3.4975e-003
299.814,65.26000, 3.5012e-003
300.069,65.32500, 3.5050e-003
300.322,65.39000, 3.5086e-003
300.579,65.45500, 3.5126e-003
300.838,65.52000, 3.5165e-003
301.093,65.58500, 3.5203e-003
301.353,65.65000, 3.5243e-003
301.606,65.71500, 3.5279e-003
301.861,65.78000, 3.5320e-003
302.114,65.84500, 3.5356e-003
302.38,65.91000, 3.5398e-003
302.633,65.97500, 3.5433e-003
302.888,66.04000, 3.5471e-003
303.142,66.10500, 3.5515e-003
303.402,66.17000, 3.5554e-003
303.644,66.23500, 3.5591e-003
303.9,66.30000, 3.5631e-003
304.151,66.36500, 3.5665e-003
304.405,66.43000, 3.5704e-003
304.668,66.49500, 3.5741e-003
304.925,66.56000, 3.5784e-003
305.174,66.62500, 3.5816e-003
305.428,66.69000, 3.5855e-003
305.679,66.75500, 3.5895e-003
305.935,66.82000, 3.5937e-003
306.189,66.88500, 3.5975e-003
306.44,66.95000, 3.6018e-003
306.694,67.01500, 3.6053e-003
306.936,67.08000, 3.6093e-003
307.191,67.14500, 3.6131e-003
307.444,67.21000, 3.6170e-003
307.697,67.27500, 3.6209e-003
307.946,67.34000, 3.6247e-003
308.197,67.40500, 3.6284e-003
308.448,67.47000, 3.6327e-003
308.699,67.53500, 3.6360e-003
308.951,67.60000, 3.6402e-003
309.2,67.66500, 3.6439e-003
309.453,67.73000, 3.6474e-003
309.701,67.79500, 3.6514e-003
309.951,67.86000, 3.6549e-003
310.201,67.92500, 3.6591e-003
310.449,67.99000, 3.6626e-003
310.695,68.05500, 3.6666e-003
310.946,68.12000, 3.6704e-003
311.196,68.18500, 3.6739e-003
311.447,68.25000, 3.6781e-003
311.695,68.31500, 3.6819e-003
311.953,68.38000, 3.6854e-003
312.194,68.44500, 3.6894e-003
312.444,68.51000, 3.6930e-003
312.691,68.57500, 3.6966e-003
312.94,68.64000, 3.7004e-003
313.188,68.70500, 3.7041e-003
313.438,68.77000, 3.7084e-003
313.687,68.83500, 3.7118e-003
313.926,68.90000, 3.7151e-003
314.179,68.96500, 3.7200e-003
314.424,69.03000, 3.7234e-003
314.674,69.09500, 3.7269e-003
314.925,69.16000, 3.7306e-003
315.167,69.22500, 3.7347e-003
315.42,69.29000, 3.7388e-003
315.67,69.35500, 3.7423e-003
315.913,69.42000, 3.7461e-003
316.172,69.48500, 3.7496e-003
316.418,69.55000, 3.7535e-003
316.668,69.61500, 3.7572e-003
316.91,69.68000, 3.7612e-003
317.159,69.74500, 3.7646e-003
317.403,69.81000, 3.7681e-003
317.653,69.87500, 3.7719e-003
317.902,69.94000, 3.7760e-003
318.148,70.00500, 3.7804e-003
318.397,70.07000, 3.7837e-003
318.639,70.13500, 3.7874e-003
318.882,70.20000, 3.7915e-003
319.128,70.26500, 3.7946e-003
319.373,70.33000, 3.7988e-003
319.617,70.39500, 3.8024e-003
319.864,70.46000, 3.8060e-003
320.113,70.52500, 3.8097e-003
320.36,70.59000, 3.8137e-003
320.605,70.65500, 3.8172e-003
320.851,70.72000, 3.8208e-003
321.097,70.78500, 3.8245e-003
321.346,70.85000, 3.8287e-003
321.59,70.91500, 3.8322e-003
321.829,70.98000, 3.8360e-003
322.073,71.04500, 3.8398e-003
322.326,71.11000, 3.8436e-003
322.57,71.17500, 3.8469e-003
322.811,71.24000, 3.8508e-003
323.053,71.30500, 3.8549e-003
323.299,71.37000, 3.8583e-003
323.542,71.43500, 3.8619e-003
323.794,71.50000, 3.8660e-003
324.03,71.56500, 3.8699e-003
324.271,71.63000, 3.8730e-003
324.515,71.69500, 3.8771e-003
324.76,71.76000, 3.8810e-003
325.005,71.82500, 3.8845e-003
325.242,71.89000, 3.8879e-003
325.487,71.95500, 3.8917e-003
325.735,72.02000, 3.8958e-003
325.971,72.08500, 3.8995e-003
326.221,72.15000, 3.9034e-003
326.458,72.21500, 3.9068e-003
326.706,72.28000, 3.9102e-003
326.941,72.34500, 3.9137e-003
327.189,72.41000, 3.9176e-003
327.435,72.47500, 3.9212e-003
327.676,72.54000, 3.9251e-003
327.915,72.60500, 3.9287e-003
328.161,72.67000, 3.9324e-003
328.401,72.73500, 3.9361e-003
328.646,72.80000, 3.9398e-003
328.891,72.86500, 3.9432e-003
329.129,72.93000, 3.9471e-003
329.37,72.99500, 3.9505e-003
329.607,73.06000, 3.9542e-003
329.847,73.12500, 3.9582e-003
330.084,73.19000, 3.9617e-003
330.326,73.25500, 3.9655e-003
330.566,73.32000, 3.9688e-003
330.803,73.38500, 3.9726e-003
331.045,73.45000, 3.9761e-003
331.285,73.51500, 3.9799e-003
331.529,73.58000, 3.9835e-003
331.766,73.64500, 3.9873e-003
332.017,73.71000, 3.9906e-003
332.255,73.77500, 3.9937e-003
332.499,73.84000, 3.9981e-003
332.745,73.90500, 4.0015e-003
332.976,73.97000, 4.0053e-003
333.229,74.03500, 4.0084e-003
333.46,74.10000, 4.0123e-003
333.702,74.16500, 4.0158e-003
333.945,74.23000, 4.0193e-003
334.187,74.29500, 4.0229e-003
334.423,74.36000, 4.0267e-003
334.66,74.42500, 4.0300e-003
334.905,74.49000, 4.0338e-003
335.139,74.55500, 4.0373e-003
335.374,74.62000, 4.0409e-003
335.617,74.68500, 4.0440e-003
335.857,74.75000, 4.0478e-003
336.094,74.81500, 4.0515e-003
336.343,74.88000, 4.0547e-003
336.584,74.94500, 4.0584e-003
336.817,75.01000, 4.0621e-003
337.054,75.07500, 4.0657e-003
337.3,75.14000, 4.0689e-003
337.535,75.20500, 4.0726e-003
337.78,75.27000, 4.0762e-003
338.019,75.33500, 4.0800e-003
338.253,75.40000, 4.0833e-003
338.5,75.46500, 4.0870e-003
338.736,75.53000, 4.0906e-003
338.98,75.59500, 4.0939e-003
339.214,75.66000, 4.0973e-003
339.451,75.72500, 4.1009e-003
339.69,75.79000, 4.1043e-003
339.928,75.85500, 4.1079e-003
340.171,75.92000, 4.1116e-003
340.404,75.98500, 4.1155e-003
340.647,76.05000, 4.1189e-003
340.885,76.11500, 4.1223e-003
341.124,76.18000, 4.1265e-003
341.36,76.24500, 4.1299e-003
341.605,76.31000, 4.1331e-003
341.842,76.37500, 4.1366e-003
342.078,76.44000, 4.1399e-003
342.328,76.50500, 4.1433e-003
342.558,76.57000, 4.1472e-003
342.796,76.63500, 4.1504e-003
343.036,76.70000, 4.1544e-003
343.268,76.76500, 4.1575e-003
343.505,76.83000, 4.1607e-003
343.752,76.89500, 4.1635e-003
343.987,76.96000, 4.1668e-003
344.228,77.02500, 4.1705e-003
344.464,77.09000, 4.1741e-003
344.699,77.15500, 4.1775e-003
344.941,77.22000, 4.1808e-003
345.183,77.28500, 4.1841e-003
345.41,77.35000, 4.1877e-003
345.64,77.41500, 4.1909e-003
345.876,77.48000, 4.1950e-003
346.116,77.54500, 4.1987e-003
346.36,77.61000, 4.2020e-003
346.597,77.67500, 4.2055e-003
346.837,77.74000, 4.2085e-003
347.072,77.80500, 4.2120e-003
347.306,77.87000, 4.2158e-003
347.539,77.93500, 4.2194e-003
347.778,78.00000, 4.2228e-003
348.011,78.06500, 4.2262e-003
348.246,78.13000, 4.2300e-003
348.484,78.19500, 4.2335e-003
348.715,78.26000, 4.2364e-003
348.956,78.32500, 4.2402e-003
349.193,78.39000, 4.2436e-003
349.425,78.45500, 4.2470e-003
349.659,78.52000, 4.2508e-003
349.902,78.58500, 4.2548e-003
350.132,78.65000, 4.2580e-003
350.367,78.71500, 4.2612e-003
350.607,78.78000, 4.2649e-003
350.845,78.84500, 4.2683e-003
351.078,78.91000, 4.2722e-003
351.317,78.97500, 4.2759e-003
351.553,79.04000, 4.2792e-003
351.786,79.10500, 4.2823e-003
352.025,79.17000, 4.2857e-003
352.251,79.23500, 4.2890e-003
352.49,79.30000, 4.2928e-003
352.727,79.36500, 4.2965e-003
352.966,79.43000, 4.3004e-003
353.205,79.49500, 4.3040e-003
353.429,79.56000, 4.3069e-003
353.667,79.62500, 4.3107e-003
353.9,79.69000, 4.3140e-003
354.136,79.75500, 4.3174e-003
354.368,79.82000, 4.3208e-003
354.599,79.88500, 4.3244e-003
354.827,79.95000, 4.3275e-003
355.071,80.01500, 4.3308e-003
355.302,80.08000, 4.3348e-003
355.536,80.14500, 4.3386e-003
355.764,80.21000, 4.3418e-003
355.999,80.27500, 4.3451e-003
356.238,80.34000, 4.3487e-003
356.469,80.40500, 4.3524e-003
356.705,80.47000, 4.3556e-003
356.933,80.53500, 4.3591e-003
357.166,80.60000, 4.3625e-003
357.41,80.66500, 4.3658e-003
357.642,80.73000, 4.3692e-003
357.877,80.79500, 4.3727e-003
358.109,80.86000, 4.3762e-003
358.346,80.92500, 4.3798e-003
358.576,80.99000, 4.3832e-003
358.814,81.05500, 4.3872e-003
359.041,81.12000, 4.3908e-003
359.279,81.18500, 4.3938e-003
359.509,81.25000, 4.3970e-003
359.744,81.31500, 4.4002e-003
359.98,81.38000, 4.4041e-003
360.208,81.44500, 4.4073e-003
360.441,81.51000, 4.4108e-003
360.679,81.57500, 4.4142e-003
360.909,81.64000, 4.4172e-003
361.142,81.70500, 4.4214e-003
361.377,81.77000, 4.4240e-003
361.612,81.83500, 4.4279e-003
361.843,81.90000, 4.4315e-003
362.079,81.96500, 4.4347e-003
362.314,82.03000, 4.4384e-003
362.547,82.09500, 4.4421e-003
362.782,82.16000, 4.4455e-003
363.007,82.22500, 4.4485e-003
363.244,82.29000, 4.4520e-003
363.471,82.35500, 4.4553e-003
363.703,82.42000, 4.4592e-003
363.941,82.48500, 4.4618e-003
364.169,82.55000, 4.4655e-003
364.395,82.61500, 4.4692e-003
364.631,82.68000, 4.4722e-003
364.867,82.74500, 4.4757e-003
365.098,82.81000, 4.4785e-003
365.328,82.87500, 4.4820e-003
365.563,82.94000, 4.4854e-003
365.787,83.00500, 4.4887e-003
366.028,83.07000, 4.4923e-003
366.26,83.13500, 4.4960e-003
366.492,83.20000, 4.4993e-003
366.724,83.26500, 4.5025e-003
366.956,83.33000, 4.5060e-003
367.188,83.39500, 4.5097e-003
367.42,83.46000, 4.5114e-003
367.651,83.52500, 4.5149e-003
367.881,83.59000, 4.5178e-003
368.111,83.65500, 4.5212e-003
368.348,83.72000, 4.5243e-003
368.574,83.78500, 4.5276e-003
368.807,83.85000, 4.5313e-003
369.041,83.91500, 4.5345e-003
369.269,83.98000, 4.5378e-003
369.498,84.04500, 4.5413e-003
369.728,84.11000, 4.5446e-003
369.964,84.17500, 4.5480e-003
370.194,84.24000, 4.5509e-003
370.421,84.30500, 4.5547e-003
370.657,84.37000, 4.5582e-003
370.888,84.43500, 4.5614e-003
371.121,84.50000, 4.5647e-003
371.351,84.56500, 4.5683e-003
371.58,84.63000, 4.5718e-003
371.812,84.69500, 4.5749e-003
372.044,84.76000, 4.5788e-003
372.28,84.82500, 4.5820e-003
372.505,84.89000, 4.5852e-003
372.74,84.95500, 4.5878e-003
372.966,85.02000, 4.5923e-003
373.198,85.08500, 4.5951e-003
373.432,85.15000, 4.5987e-003
373.657,85.21500, 4.6024e-003
373.878,85.28000, 4.6052e-003
374.113,85.34500, 4.6087e-003
374.344,85.41000, 4.6113e-003
374.576,85.47500, 4.6151e-003
374.802,85.54000, 4.6187e-003
375.035,85.60500, 4.6220e-003
375.26,85.67000, 4.6251e-003
375.493,85.73500, 4.6287e-003
375.716,85.80000, 4.6318e-003
375.948,85.86500, 4.6355e-003
376.172,85.93000, 4.6394e-003
376.411,85.99500, 4.6425e-003
376.643,86.06000, 4.6459e-003
376.875,86.12500, 4.6490e-003
377.103,86.19000, 4.6523e-003
377.328,86.25500, 4.6558e-003
377.557,86.32000, 4.6592e-003
377.787,86.38500, 4.6622e-003
378.013,86.45000, 4.6654e-003
378.245,86.51500, 4.6691e-003
378.472,86.58000, 4.6724e-003
378.703,86.64500, 4.6755e-003
378.936,86.71000, 4.6788e-003
379.159,86.77500, 4.6820e-003
379.388,86.84000, 4.6855e-003
379.619,86.90500, 4.6895e-003
379.845,86.97000, 4.6924e-003
380.07,87.03500, 4.6956e-003
380.299,87.10000, 4.6992e-003
380.535,87.16500, 4.7026e-003
380.755,87.23000, 4.7054e-003
380.986,87.29500, 4.7090e-003
381.21,87.36000, 4.7120e-003
381.434,87.42500, 4.7140e-003
381.66,87.49000, 4.7172e-003
381.891,87.55500, 4.7204e-003
382.128,87.62000, 4.7240e-003
382.351,87.68500, 4.7266e-003
382.584,87.75000, 4.7303e-003
382.809,87.81500, 4.7337e-003
383.04,87.88000, 4.7369e-003
383.268,87.94500, 4.7402e-003
383.501,88.01000, 4.7438e-003
383.724,88.07500, 4.7470e-003
383.95,88.14000, 4.7503e-003
384.174,88.20500, 4.7538e-003
384.401,88.27000, 4.7567e-003
384.625,88.33500, 4.7598e-003
384.853,88.40000, 4.7635e-003
385.081,88.46500, 4.7670e-003
385.309,88.53000, 4.7702e-003